iterationName	gameid	serverTime	condition	trialNum	instructionNum	targetObject	attemptNum	trialType	objectSet	critical	correct	attemptedObject	intendedX	intendedY	attemptedX	attemptedY	responseTime	eventType
planned_sample	7243-acd434ec-b5d6-4d4e-8c98-bc4cdb2b00ec	1522820959872	unscripted	1	0	magnet	0	exp	7	false	correct	magnet	2	4	2	4	3956	drop
planned_sample	7243-acd434ec-b5d6-4d4e-8c98-bc4cdb2b00ec	1522820977059	unscripted	1	1	handcuffs	0	exp	7	false	correct	handcuffs	4	3	4	3	2226	drop
planned_sample	7243-acd434ec-b5d6-4d4e-8c98-bc4cdb2b00ec	1522821001028	unscripted	1	2	pandaToy	0	exp	7	false	correct	pandaToy	3	2	3	2	4693	drop
planned_sample	7243-acd434ec-b5d6-4d4e-8c98-bc4cdb2b00ec	1522821023585	unscripted	1	3	mediumCandle	0	exp	7	true	correct	mediumCandle	1	2	1	2	1676	drop
planned_sample	7243-acd434ec-b5d6-4d4e-8c98-bc4cdb2b00ec	1522821041230	unscripted	2	0	banana	0	base	6	false	correct	banana	4	2	4	2	2983	drop
planned_sample	7243-acd434ec-b5d6-4d4e-8c98-bc4cdb2b00ec	1522821064921	unscripted	2	1	dollar	0	base	6	false	correct	dollar	4	3	4	3	5599	drop
planned_sample	7243-acd434ec-b5d6-4d4e-8c98-bc4cdb2b00ec	1522821081219	unscripted	2	2	boardEraser	0	base	6	true	correct	boardEraser	2	3	2	3	2217	drop
planned_sample	7243-acd434ec-b5d6-4d4e-8c98-bc4cdb2b00ec	1522821100679	unscripted	2	3	feather	0	base	6	false	correct	feather	2	4	2	4	3178	drop
planned_sample	7243-acd434ec-b5d6-4d4e-8c98-bc4cdb2b00ec	1522821121611	unscripted	3	0	carrot	0	exp	4	false	correct	carrot	2	3	2	3	2442	drop
planned_sample	7243-acd434ec-b5d6-4d4e-8c98-bc4cdb2b00ec	1522821142246	unscripted	3	0	mediumMeasuringCup	1	exp	4	true	incorrect	largeMeasuringCup	4	4	1	4	2518	drop
planned_sample	7243-acd434ec-b5d6-4d4e-8c98-bc4cdb2b00ec	1522821182415	unscripted	3	1	mediumMeasuringCup	0	exp	4	true	correct	mediumMeasuringCup	4	4	4	4	23633	drop
planned_sample	7243-acd434ec-b5d6-4d4e-8c98-bc4cdb2b00ec	1522821210442	unscripted	3	2	waterBottle	0	exp	4	false	correct	waterBottle	2	2	2	2	5600	drop
planned_sample	7243-acd434ec-b5d6-4d4e-8c98-bc4cdb2b00ec	1522821227707	unscripted	3	3	chair	0	exp	4	false	correct	chair	3	2	3	2	2124	drop
planned_sample	7243-acd434ec-b5d6-4d4e-8c98-bc4cdb2b00ec	1522821248874	unscripted	4	0	airplane	0	exp	1	false	correct	airplane	3	1	3	1	5765	drop
planned_sample	7243-acd434ec-b5d6-4d4e-8c98-bc4cdb2b00ec	1522821268472	unscripted	4	1	sunGlasses	0	exp	1	true	correct	sunGlasses	4	4	4	4	2515	drop
planned_sample	7243-acd434ec-b5d6-4d4e-8c98-bc4cdb2b00ec	1522821284475	unscripted	4	2	barrel	0	exp	1	false	correct	barrel	4	3	4	3	2286	drop
planned_sample	7243-acd434ec-b5d6-4d4e-8c98-bc4cdb2b00ec	1522821299342	unscripted	4	3	saxophone	0	exp	1	false	correct	saxophone	2	3	2	3	2130	drop
planned_sample	7243-acd434ec-b5d6-4d4e-8c98-bc4cdb2b00ec	1522821322328	unscripted	5	0	basketball	0	base	5	false	correct	basketball	3	2	3	2	2884	drop
planned_sample	7243-acd434ec-b5d6-4d4e-8c98-bc4cdb2b00ec	1522821347547	unscripted	5	1	roundBrush	0	base	5	true	correct	roundBrush	2	4	2	4	2786	drop
planned_sample	7243-acd434ec-b5d6-4d4e-8c98-bc4cdb2b00ec	1522821365689	unscripted	5	2	headphones	0	base	5	false	correct	headphones	3	3	3	3	2122	drop
planned_sample	7243-acd434ec-b5d6-4d4e-8c98-bc4cdb2b00ec	1522821388446	unscripted	5	3	book	0	base	5	false	correct	book	3	1	3	1	1874	drop
planned_sample	7243-acd434ec-b5d6-4d4e-8c98-bc4cdb2b00ec	1522821407109	unscripted	6	0	scissors	0	base	3	false	correct	scissors	2	2	2	2	1888	drop
planned_sample	7243-acd434ec-b5d6-4d4e-8c98-bc4cdb2b00ec	1522821422254	unscripted	6	1	knife	0	base	3	false	correct	knife	3	4	3	4	1880	drop
planned_sample	7243-acd434ec-b5d6-4d4e-8c98-bc4cdb2b00ec	1522821443671	unscripted	6	2	barOfSoap	0	base	3	false	correct	barOfSoap	3	3	3	3	2219	drop
planned_sample	7243-acd434ec-b5d6-4d4e-8c98-bc4cdb2b00ec	1522821472148	unscripted	6	3	cassetteTape	0	base	3	true	correct	cassetteTape	3	2	3	2	2719	drop
planned_sample	7243-acd434ec-b5d6-4d4e-8c98-bc4cdb2b00ec	1522821489441	unscripted	7	0	binoculars	0	exp	2	false	correct	binoculars	2	4	2	4	2105	drop
planned_sample	7243-acd434ec-b5d6-4d4e-8c98-bc4cdb2b00ec	1522821507354	unscripted	7	1	wrench	0	exp	2	false	correct	wrench	2	1	2	1	1888	drop
planned_sample	7243-acd434ec-b5d6-4d4e-8c98-bc4cdb2b00ec	1522821530279	unscripted	7	2	middleBlock	0	exp	2	true	correct	middleBlock	3	3	3	3	6854	drop
planned_sample	7243-acd434ec-b5d6-4d4e-8c98-bc4cdb2b00ec	1522821561543	unscripted	7	3	coffeeMug	0	exp	2	false	correct	coffeeMug	2	2	2	2	2111	drop
planned_sample	7243-acd434ec-b5d6-4d4e-8c98-bc4cdb2b00ec	1522821582975	unscripted	8	0	comb	0	base	8	false	correct	comb	1	1	1	1	1961	drop
planned_sample	7243-acd434ec-b5d6-4d4e-8c98-bc4cdb2b00ec	1522821597321	unscripted	8	1	computerMouse	0	base	8	true	correct	computerMouse	4	2	4	2	2070	drop
planned_sample	7243-acd434ec-b5d6-4d4e-8c98-bc4cdb2b00ec	1522821611025	unscripted	8	2	castIronPan	0	base	8	false	correct	castIronPan	3	3	3	3	1760	drop
planned_sample	7243-acd434ec-b5d6-4d4e-8c98-bc4cdb2b00ec	1522821642602	unscripted	8	3	piano	0	base	8	false	correct	piano	1	4	1	4	14171	drop
