iterationName	gameid	serverTime	condition	trialNum	instructionNum	targetObject	attemptNum	trialType	objectSet	critical	correct	attemptedObject	intendedX	intendedY	attemptedX	attemptedY	responseTime	eventType
planned_sample	1042-4cd92598-c59f-4411-b8b6-227e39f9a812	1522798276206	unscripted	1	-1	scissors	1	base	3	false	incorrect	scissors	2	2	3	2	10800	drop
planned_sample	1042-4cd92598-c59f-4411-b8b6-227e39f9a812	1522798319304	unscripted	1	0	scissors	0	base	3	false	correct	scissors	2	2	2	2	5480	drop
planned_sample	1042-4cd92598-c59f-4411-b8b6-227e39f9a812	1522798352905	unscripted	1	1	knife	0	base	3	false	correct	knife	3	4	3	4	3136	drop
planned_sample	1042-4cd92598-c59f-4411-b8b6-227e39f9a812	1522798387464	unscripted	1	2	barOfSoap	0	base	3	false	correct	barOfSoap	3	3	3	3	2312	drop
planned_sample	1042-4cd92598-c59f-4411-b8b6-227e39f9a812	1522798403224	unscripted	1	3	cassetteTape	0	base	3	true	correct	cassetteTape	3	2	3	2	2103	drop
planned_sample	1042-4cd92598-c59f-4411-b8b6-227e39f9a812	1522798469340	unscripted	2	-1	binoculars	1	exp	2	false	incorrect	binoculars	2	4	1	3	7017	drop
planned_sample	1042-4cd92598-c59f-4411-b8b6-227e39f9a812	1522798509841	unscripted	2	-1	binoculars	2	exp	2	false	incorrect	binoculars	2	4	2	3	4215	drop
planned_sample	1042-4cd92598-c59f-4411-b8b6-227e39f9a812	1522798541696	unscripted	2	0	binoculars	0	exp	2	false	correct	binoculars	2	4	2	4	1540	drop
planned_sample	1042-4cd92598-c59f-4411-b8b6-227e39f9a812	1522798562698	unscripted	2	1	wrench	0	exp	2	false	correct	wrench	2	1	2	1	2880	drop
planned_sample	1042-4cd92598-c59f-4411-b8b6-227e39f9a812	1522798593188	unscripted	2	2	middleBlock	0	exp	2	true	correct	middleBlock	3	3	3	3	9802	drop
planned_sample	1042-4cd92598-c59f-4411-b8b6-227e39f9a812	1522798618582	unscripted	2	3	coffeeMug	0	exp	2	false	correct	coffeeMug	2	2	2	2	3959	drop
planned_sample	1042-4cd92598-c59f-4411-b8b6-227e39f9a812	1522798639145	unscripted	3	0	magnet	0	exp	7	false	correct	magnet	2	4	2	4	4800	drop
planned_sample	1042-4cd92598-c59f-4411-b8b6-227e39f9a812	1522798660650	unscripted	3	1	handcuffs	0	exp	7	false	correct	handcuffs	4	3	4	3	2294	drop
planned_sample	1042-4cd92598-c59f-4411-b8b6-227e39f9a812	1522798682187	unscripted	3	2	pandaToy	0	exp	7	false	correct	pandaToy	3	2	3	2	1527	drop
planned_sample	1042-4cd92598-c59f-4411-b8b6-227e39f9a812	1522798700891	unscripted	3	3	mediumCandle	0	exp	7	true	correct	mediumCandle	1	2	1	2	1755	drop
planned_sample	1042-4cd92598-c59f-4411-b8b6-227e39f9a812	1522798765983	unscripted	4	0	carrot	0	base	4	false	correct	carrot	2	3	2	3	3663	drop
planned_sample	1042-4cd92598-c59f-4411-b8b6-227e39f9a812	1522798783442	unscripted	4	1	mediumMeasuringCup	0	base	4	true	correct	mediumMeasuringCup	4	4	4	4	2575	drop
planned_sample	1042-4cd92598-c59f-4411-b8b6-227e39f9a812	1522798803109	unscripted	4	2	waterBottle	0	base	4	false	correct	waterBottle	2	2	2	2	5952	drop
planned_sample	1042-4cd92598-c59f-4411-b8b6-227e39f9a812	1522798827189	unscripted	4	3	chair	0	base	4	false	correct	chair	3	2	3	2	7808	drop
planned_sample	1042-4cd92598-c59f-4411-b8b6-227e39f9a812	1522798904457	unscripted	5	0	comb	0	base	8	false	correct	comb	1	1	1	1	7895	drop
planned_sample	1042-4cd92598-c59f-4411-b8b6-227e39f9a812	1522798950586	unscripted	5	1	computerMouse	0	base	8	true	correct	computerMouse	4	2	4	2	5121	drop
planned_sample	1042-4cd92598-c59f-4411-b8b6-227e39f9a812	1522799010440	unscripted	5	2	castIronPan	0	base	8	false	correct	castIronPan	3	3	3	3	5287	drop
planned_sample	1042-4cd92598-c59f-4411-b8b6-227e39f9a812	1522799069660	unscripted	5	3	piano	0	base	8	false	correct	piano	1	4	1	4	3881	drop
planned_sample	1042-4cd92598-c59f-4411-b8b6-227e39f9a812	1522799129939	unscripted	6	0	basketball	0	exp	5	false	correct	basketball	3	2	3	2	8498	drop
planned_sample	1042-4cd92598-c59f-4411-b8b6-227e39f9a812	1522799154385	unscripted	6	0	roundBrush	1	exp	5	true	incorrect	hairBrush	2	4	2	4	11137	drop
planned_sample	1042-4cd92598-c59f-4411-b8b6-227e39f9a812	1522799204791	unscripted	6	0	roundBrush	2	exp	5	true	incorrect	hairBrush	2	4	4	2	7776	drop
planned_sample	1042-4cd92598-c59f-4411-b8b6-227e39f9a812	1522799232828	unscripted	6	1	roundBrush	0	exp	5	true	correct	roundBrush	2	4	2	4	5775	drop
planned_sample	1042-4cd92598-c59f-4411-b8b6-227e39f9a812	1522799255132	unscripted	6	2	headphones	0	exp	5	false	correct	headphones	3	3	3	3	5577	drop
planned_sample	1042-4cd92598-c59f-4411-b8b6-227e39f9a812	1522799280944	unscripted	6	3	book	0	exp	5	false	correct	book	3	1	3	1	4695	drop
planned_sample	1042-4cd92598-c59f-4411-b8b6-227e39f9a812	1522799315505	unscripted	7	0	airplane	0	exp	1	false	correct	airplane	3	1	3	1	3219	drop
planned_sample	1042-4cd92598-c59f-4411-b8b6-227e39f9a812	1522799331830	unscripted	7	1	sunGlasses	0	exp	1	true	correct	sunGlasses	4	4	4	4	3721	drop
planned_sample	1042-4cd92598-c59f-4411-b8b6-227e39f9a812	1522799351587	unscripted	7	2	barrel	0	exp	1	false	correct	barrel	4	3	4	3	2318	drop
planned_sample	1042-4cd92598-c59f-4411-b8b6-227e39f9a812	1522799382176	unscripted	7	3	saxophone	0	exp	1	false	correct	saxophone	2	3	2	3	2640	drop
planned_sample	1042-4cd92598-c59f-4411-b8b6-227e39f9a812	1522799425856	unscripted	8	0	banana	0	base	6	false	correct	banana	4	2	4	2	3631	drop
planned_sample	1042-4cd92598-c59f-4411-b8b6-227e39f9a812	1522799452782	unscripted	8	1	dollar	0	base	6	false	correct	dollar	4	3	4	3	1884	drop
planned_sample	1042-4cd92598-c59f-4411-b8b6-227e39f9a812	1522799482475	unscripted	8	2	boardEraser	0	base	6	true	correct	boardEraser	2	3	2	3	8024	drop
planned_sample	1042-4cd92598-c59f-4411-b8b6-227e39f9a812	1522799495199	unscripted	8	3	feather	0	base	6	false	correct	feather	2	4	2	4	3387	drop
