iterationName	gameid	serverTime	condition	trialNum	instructionNum	targetObject	attemptNum	trialType	objectSet	critical	correct	attemptedObject	intendedX	intendedY	attemptedX	attemptedY	responseTime	eventType
planned_sample	7483-937857fa-3762-45d4-8273-61f4152c65fe	1522791765175	scripted	1	0	magnet	0	base	7	false	correct	magnet	2	4	2	4	4148	drop
planned_sample	7483-937857fa-3762-45d4-8273-61f4152c65fe	1522791794857	scripted	1	1	handcuffs	0	base	7	false	correct	handcuffs	4	3	4	3	4118	drop
planned_sample	7483-937857fa-3762-45d4-8273-61f4152c65fe	1522791819979	scripted	1	2	pandaToy	0	base	7	false	correct	pandaToy	3	2	3	2	3342	drop
planned_sample	7483-937857fa-3762-45d4-8273-61f4152c65fe	1522791833298	scripted	1	3	mediumCandle	0	base	7	true	correct	mediumCandle	1	2	1	2	3788	drop
planned_sample	7483-937857fa-3762-45d4-8273-61f4152c65fe	1522791848956	scripted	2	0	carrot	0	exp	4	false	correct	carrot	2	3	2	3	2516	drop
planned_sample	7483-937857fa-3762-45d4-8273-61f4152c65fe	1522791870753	scripted	2	1	mediumMeasuringCup	0	exp	4	true	correct	mediumMeasuringCup	4	4	4	4	7764	drop
planned_sample	7483-937857fa-3762-45d4-8273-61f4152c65fe	1522791896058	scripted	2	2	waterBottle	0	exp	4	false	correct	waterBottle	2	2	2	2	5028	drop
planned_sample	7483-937857fa-3762-45d4-8273-61f4152c65fe	1522791917662	scripted	2	3	chair	0	exp	4	false	correct	chair	3	2	3	2	4094	drop
planned_sample	7483-937857fa-3762-45d4-8273-61f4152c65fe	1522791936236	scripted	3	0	comb	0	exp	8	false	correct	comb	1	1	1	1	3136	drop
planned_sample	7483-937857fa-3762-45d4-8273-61f4152c65fe	1522791951859	scripted	3	0	computerMouse	1	exp	8	true	incorrect	toyMouse	4	2	1	2	2196	drop
planned_sample	7483-937857fa-3762-45d4-8273-61f4152c65fe	1522791974952	scripted	3	1	computerMouse	0	exp	8	true	correct	computerMouse	4	2	4	2	3842	drop
planned_sample	7483-937857fa-3762-45d4-8273-61f4152c65fe	1522792001475	scripted	3	2	castIronPan	0	exp	8	false	correct	castIronPan	3	3	3	3	2838	drop
planned_sample	7483-937857fa-3762-45d4-8273-61f4152c65fe	1522792021074	scripted	3	3	piano	0	exp	8	false	correct	piano	1	4	1	4	5068	drop
planned_sample	7483-937857fa-3762-45d4-8273-61f4152c65fe	1522792038963	scripted	4	0	airplane	0	base	1	false	correct	airplane	3	1	3	1	3858	drop
planned_sample	7483-937857fa-3762-45d4-8273-61f4152c65fe	1522792051829	scripted	4	1	sunGlasses	0	base	1	true	correct	sunGlasses	4	4	4	4	2886	drop
planned_sample	7483-937857fa-3762-45d4-8273-61f4152c65fe	1522792065476	scripted	4	2	barrel	0	base	1	false	correct	barrel	4	3	4	3	5098	drop
planned_sample	7483-937857fa-3762-45d4-8273-61f4152c65fe	1522792083559	scripted	4	3	saxophone	0	base	1	false	correct	saxophone	2	3	2	3	3506	drop
planned_sample	7483-937857fa-3762-45d4-8273-61f4152c65fe	1522792102375	scripted	5	0	scissors	0	base	3	false	correct	scissors	2	2	2	2	3648	drop
planned_sample	7483-937857fa-3762-45d4-8273-61f4152c65fe	1522792114673	scripted	5	1	knife	0	base	3	false	correct	knife	3	4	3	4	2188	drop
planned_sample	7483-937857fa-3762-45d4-8273-61f4152c65fe	1522792146905	scripted	5	2	barOfSoap	0	base	3	false	correct	barOfSoap	3	3	3	3	8352	drop
planned_sample	7483-937857fa-3762-45d4-8273-61f4152c65fe	1522792162633	scripted	5	3	cassetteTape	0	base	3	true	correct	cassetteTape	3	2	3	2	2662	drop
planned_sample	7483-937857fa-3762-45d4-8273-61f4152c65fe	1522792178203	scripted	6	0	basketball	0	exp	5	false	correct	basketball	3	2	3	2	2948	drop
planned_sample	7483-937857fa-3762-45d4-8273-61f4152c65fe	1522792189554	scripted	6	0	roundBrush	1	exp	5	true	incorrect	hairBrush	2	4	3	1	3396	drop
planned_sample	7483-937857fa-3762-45d4-8273-61f4152c65fe	1522792241684	scripted	6	0	roundBrush	2	exp	5	true	incorrect	roundBrush	2	4	3	3	250	drop
planned_sample	7483-937857fa-3762-45d4-8273-61f4152c65fe	1522792244386	scripted	6	0	roundBrush	0	exp	5	true	correct	roundBrush	2	4	2	4	2984	drop
planned_sample	7483-937857fa-3762-45d4-8273-61f4152c65fe	1522792261614	scripted	6	2	headphones	0	exp	5	false	correct	headphones	3	3	3	3	2182	drop
planned_sample	7483-937857fa-3762-45d4-8273-61f4152c65fe	1522792274196	scripted	6	3	book	0	exp	5	false	correct	book	3	1	3	1	1586	drop
planned_sample	7483-937857fa-3762-45d4-8273-61f4152c65fe	1522792283797	scripted	7	0	banana	0	base	6	false	correct	banana	4	2	4	2	2340	drop
planned_sample	7483-937857fa-3762-45d4-8273-61f4152c65fe	1522792299126	scripted	7	1	dollar	0	base	6	false	correct	dollar	4	3	4	3	2548	drop
planned_sample	7483-937857fa-3762-45d4-8273-61f4152c65fe	1522792314221	scripted	7	2	boardEraser	0	base	6	true	correct	boardEraser	2	3	2	3	3256	drop
planned_sample	7483-937857fa-3762-45d4-8273-61f4152c65fe	1522792330785	scripted	7	3	feather	0	base	6	false	correct	feather	2	4	2	4	4048	drop
planned_sample	7483-937857fa-3762-45d4-8273-61f4152c65fe	1522792351267	scripted	8	0	binoculars	0	exp	2	false	correct	binoculars	2	4	2	4	9066	drop
planned_sample	7483-937857fa-3762-45d4-8273-61f4152c65fe	1522792369136	scripted	8	1	wrench	0	exp	2	false	correct	wrench	2	1	2	1	3890	drop
planned_sample	7483-937857fa-3762-45d4-8273-61f4152c65fe	1522792382421	scripted	8	1	middleBlock	1	exp	2	true	incorrect	bottomBlock	3	3	3	4	5164	drop
planned_sample	7483-937857fa-3762-45d4-8273-61f4152c65fe	1522792406575	scripted	8	2	middleBlock	0	exp	2	true	correct	middleBlock	3	3	3	3	1716	drop
planned_sample	7483-937857fa-3762-45d4-8273-61f4152c65fe	1522792426600	scripted	8	3	coffeeMug	0	exp	2	false	correct	coffeeMug	2	2	2	2	4386	drop
