iterationName	gameid	serverTime	condition	trialNum	instructionNum	targetObject	attemptNum	trialType	objectSet	critical	correct	attemptedObject	intendedX	intendedY	attemptedX	attemptedY	responseTime	eventType
planned_sample	7744-d41dd430-a713-4edf-a863-c1cde5455560	1522823038312	unscripted	1	0	airplane	0	base	1	false	correct	airplane	3	1	3	1	4880	drop
planned_sample	7744-d41dd430-a713-4edf-a863-c1cde5455560	1522823065504	unscripted	1	1	sunGlasses	0	base	1	true	correct	sunGlasses	4	4	4	4	3648	drop
planned_sample	7744-d41dd430-a713-4edf-a863-c1cde5455560	1522823093881	unscripted	1	2	barrel	0	base	1	false	correct	barrel	4	3	4	3	2104	drop
planned_sample	7744-d41dd430-a713-4edf-a863-c1cde5455560	1522823123426	unscripted	1	3	saxophone	0	base	1	false	correct	saxophone	2	3	2	3	4839	drop
planned_sample	7744-d41dd430-a713-4edf-a863-c1cde5455560	1522823148769	unscripted	2	0	comb	0	exp	8	false	correct	comb	1	1	1	1	2000	drop
planned_sample	7744-d41dd430-a713-4edf-a863-c1cde5455560	1522823173362	unscripted	2	0	computerMouse	1	exp	8	true	incorrect	toyMouse	4	2	1	2	1678	drop
planned_sample	7744-d41dd430-a713-4edf-a863-c1cde5455560	1522823212603	unscripted	2	1	computerMouse	0	exp	8	true	correct	computerMouse	4	2	4	2	3464	drop
planned_sample	7744-d41dd430-a713-4edf-a863-c1cde5455560	1522823248907	unscripted	2	2	castIronPan	0	exp	8	false	correct	castIronPan	3	3	3	3	3504	drop
planned_sample	7744-d41dd430-a713-4edf-a863-c1cde5455560	1522823271246	unscripted	2	3	piano	0	exp	8	false	correct	piano	1	4	1	4	1843	drop
planned_sample	7744-d41dd430-a713-4edf-a863-c1cde5455560	1522823293852	unscripted	3	0	carrot	0	exp	4	false	correct	carrot	2	3	2	3	3136	drop
planned_sample	7744-d41dd430-a713-4edf-a863-c1cde5455560	1522823345863	unscripted	3	1	mediumMeasuringCup	0	exp	4	true	correct	mediumMeasuringCup	4	4	4	4	5809	drop
planned_sample	7744-d41dd430-a713-4edf-a863-c1cde5455560	1522823376965	unscripted	3	2	waterBottle	0	exp	4	false	correct	waterBottle	2	2	2	2	1976	drop
planned_sample	7744-d41dd430-a713-4edf-a863-c1cde5455560	1522823400550	unscripted	3	3	chair	0	exp	4	false	correct	chair	3	2	3	2	1680	drop
planned_sample	7744-d41dd430-a713-4edf-a863-c1cde5455560	1522823427086	unscripted	4	0	scissors	0	base	3	false	correct	scissors	2	2	2	2	4577	drop
planned_sample	7744-d41dd430-a713-4edf-a863-c1cde5455560	1522823451647	unscripted	4	1	knife	0	base	3	false	correct	knife	3	4	3	4	4120	drop
planned_sample	7744-d41dd430-a713-4edf-a863-c1cde5455560	1522823475367	unscripted	4	2	barOfSoap	0	base	3	false	correct	barOfSoap	3	3	3	3	2473	drop
planned_sample	7744-d41dd430-a713-4edf-a863-c1cde5455560	1522823508616	unscripted	4	3	cassetteTape	0	base	3	true	correct	cassetteTape	3	2	3	2	2120	drop
planned_sample	7744-d41dd430-a713-4edf-a863-c1cde5455560	1522823534288	unscripted	5	0	binoculars	0	exp	2	false	correct	binoculars	2	4	2	4	2008	drop
planned_sample	7744-d41dd430-a713-4edf-a863-c1cde5455560	1522823571017	unscripted	5	1	wrench	0	exp	2	false	correct	wrench	2	1	2	1	2097	drop
planned_sample	7744-d41dd430-a713-4edf-a863-c1cde5455560	1522823602434	unscripted	5	2	middleBlock	0	exp	2	true	correct	middleBlock	3	3	3	3	6137	drop
planned_sample	7744-d41dd430-a713-4edf-a863-c1cde5455560	1522823646218	unscripted	5	3	coffeeMug	0	exp	2	false	correct	coffeeMug	2	2	2	2	3423	drop
planned_sample	7744-d41dd430-a713-4edf-a863-c1cde5455560	1522823684194	unscripted	6	0	magnet	0	base	7	false	correct	magnet	2	4	2	4	3546	drop
planned_sample	7744-d41dd430-a713-4edf-a863-c1cde5455560	1522823707636	unscripted	6	1	handcuffs	0	base	7	false	correct	handcuffs	4	3	4	3	1088	drop
planned_sample	7744-d41dd430-a713-4edf-a863-c1cde5455560	1522823733827	unscripted	6	2	pandaToy	0	base	7	false	correct	pandaToy	3	2	3	2	2599	drop
planned_sample	7744-d41dd430-a713-4edf-a863-c1cde5455560	1522823781740	unscripted	6	3	mediumCandle	0	base	7	true	correct	mediumCandle	1	2	1	2	1048	drop
planned_sample	7744-d41dd430-a713-4edf-a863-c1cde5455560	1522823810253	unscripted	7	0	basketball	0	exp	5	false	correct	basketball	3	2	3	2	2175	drop
planned_sample	7744-d41dd430-a713-4edf-a863-c1cde5455560	1522823868878	unscripted	7	1	roundBrush	0	exp	5	true	correct	roundBrush	2	4	2	4	3663	drop
planned_sample	7744-d41dd430-a713-4edf-a863-c1cde5455560	1522823924038	unscripted	7	2	headphones	0	exp	5	false	correct	headphones	3	3	3	3	3112	drop
planned_sample	7744-d41dd430-a713-4edf-a863-c1cde5455560	1522823953287	unscripted	7	3	book	0	exp	5	false	correct	book	3	1	3	1	2224	drop
planned_sample	7744-d41dd430-a713-4edf-a863-c1cde5455560	1522823976895	unscripted	8	0	banana	0	base	6	false	correct	banana	4	2	4	2	1673	drop
planned_sample	7744-d41dd430-a713-4edf-a863-c1cde5455560	1522823999168	unscripted	8	1	dollar	0	base	6	false	correct	dollar	4	3	4	3	1536	drop
planned_sample	7744-d41dd430-a713-4edf-a863-c1cde5455560	1522824039528	unscripted	8	2	boardEraser	0	base	6	true	correct	boardEraser	2	3	2	3	2937	drop
planned_sample	7744-d41dd430-a713-4edf-a863-c1cde5455560	1522824071849	unscripted	8	3	feather	0	base	6	false	correct	feather	2	4	2	4	1720	drop
