iterationName	gameid	serverTime	condition	trialNum	instructionNum	targetObject	attemptNum	trialType	objectSet	critical	correct	attemptedObject	intendedX	intendedY	attemptedX	attemptedY	responseTime	eventType
planned_sample	4783-4b92f9f8-da8a-46a3-8979-c6d0d2eed211	1522819723395	scripted	1	0	binoculars	0	base	2	false	correct	binoculars	2	4	2	4	6319	drop
planned_sample	4783-4b92f9f8-da8a-46a3-8979-c6d0d2eed211	1522819746981	scripted	1	1	wrench	0	base	2	false	correct	wrench	2	1	2	1	3354	drop
planned_sample	4783-4b92f9f8-da8a-46a3-8979-c6d0d2eed211	1522819768931	scripted	1	2	middleBlock	0	base	2	true	correct	middleBlock	3	3	3	3	4160	drop
planned_sample	4783-4b92f9f8-da8a-46a3-8979-c6d0d2eed211	1522819787084	scripted	1	3	coffeeMug	0	base	2	false	correct	coffeeMug	2	2	2	2	2247	drop
planned_sample	4783-4b92f9f8-da8a-46a3-8979-c6d0d2eed211	1522819808138	scripted	2	0	scissors	0	exp	3	false	correct	scissors	2	2	2	2	1488	drop
planned_sample	4783-4b92f9f8-da8a-46a3-8979-c6d0d2eed211	1522819818843	scripted	2	1	knife	0	exp	3	false	correct	knife	3	4	3	4	1288	drop
planned_sample	4783-4b92f9f8-da8a-46a3-8979-c6d0d2eed211	1522819836499	scripted	2	2	barOfSoap	0	exp	3	false	correct	barOfSoap	3	3	3	3	1600	drop
planned_sample	4783-4b92f9f8-da8a-46a3-8979-c6d0d2eed211	1522819850908	scripted	2	2	cassetteTape	1	exp	3	true	incorrect	rollOfTape	3	2	4	2	4136	drop
planned_sample	4783-4b92f9f8-da8a-46a3-8979-c6d0d2eed211	1522819882340	scripted	2	3	cassetteTape	0	exp	3	true	correct	cassetteTape	3	2	3	2	3282	drop
planned_sample	4783-4b92f9f8-da8a-46a3-8979-c6d0d2eed211	1522819895108	scripted	3	0	magnet	0	exp	7	false	correct	magnet	2	4	2	4	2225	drop
planned_sample	4783-4b92f9f8-da8a-46a3-8979-c6d0d2eed211	1522819914402	scripted	3	1	handcuffs	0	exp	7	false	correct	handcuffs	4	3	4	3	1696	drop
planned_sample	4783-4b92f9f8-da8a-46a3-8979-c6d0d2eed211	1522819928308	scripted	3	2	pandaToy	0	exp	7	false	correct	pandaToy	3	2	3	2	1232	drop
planned_sample	4783-4b92f9f8-da8a-46a3-8979-c6d0d2eed211	1522819939901	scripted	3	2	mediumCandle	1	exp	7	true	incorrect	smallCandle	1	2	1	4	2585	drop
planned_sample	4783-4b92f9f8-da8a-46a3-8979-c6d0d2eed211	1522819957029	scripted	3	3	mediumCandle	0	exp	7	true	correct	mediumCandle	1	2	1	2	1600	drop
planned_sample	4783-4b92f9f8-da8a-46a3-8979-c6d0d2eed211	1522819968495	scripted	4	0	banana	0	base	6	false	correct	banana	4	2	4	2	1558	drop
planned_sample	4783-4b92f9f8-da8a-46a3-8979-c6d0d2eed211	1522819982806	scripted	4	1	dollar	0	base	6	false	correct	dollar	4	3	4	3	2319	drop
planned_sample	4783-4b92f9f8-da8a-46a3-8979-c6d0d2eed211	1522819994382	scripted	4	2	boardEraser	0	base	6	true	correct	boardEraser	2	3	2	3	3097	drop
planned_sample	4783-4b92f9f8-da8a-46a3-8979-c6d0d2eed211	1522820007630	scripted	4	3	feather	0	base	6	false	correct	feather	2	4	2	4	1400	drop
planned_sample	4783-4b92f9f8-da8a-46a3-8979-c6d0d2eed211	1522820026261	scripted	5	0	airplane	0	exp	1	false	correct	airplane	3	1	3	1	3497	drop
planned_sample	4783-4b92f9f8-da8a-46a3-8979-c6d0d2eed211	1522820044191	scripted	5	1	sunGlasses	0	exp	1	true	correct	sunGlasses	4	4	4	4	7704	drop
planned_sample	4783-4b92f9f8-da8a-46a3-8979-c6d0d2eed211	1522820054033	scripted	5	2	barrel	0	exp	1	false	correct	barrel	4	3	4	3	1261	drop
planned_sample	4783-4b92f9f8-da8a-46a3-8979-c6d0d2eed211	1522820068853	scripted	5	3	saxophone	0	exp	1	false	correct	saxophone	2	3	2	3	1535	drop
planned_sample	4783-4b92f9f8-da8a-46a3-8979-c6d0d2eed211	1522820082427	scripted	6	0	comb	0	exp	8	false	correct	comb	1	1	1	1	2141	drop
planned_sample	4783-4b92f9f8-da8a-46a3-8979-c6d0d2eed211	1522820094025	scripted	6	0	computerMouse	1	exp	8	true	incorrect	toyMouse	4	2	1	2	2834	drop
planned_sample	4783-4b92f9f8-da8a-46a3-8979-c6d0d2eed211	1522820106679	scripted	6	1	computerMouse	0	exp	8	true	correct	computerMouse	4	2	4	2	1184	drop
planned_sample	4783-4b92f9f8-da8a-46a3-8979-c6d0d2eed211	1522820123262	scripted	6	2	castIronPan	0	exp	8	false	correct	castIronPan	3	3	3	3	2448	drop
planned_sample	4783-4b92f9f8-da8a-46a3-8979-c6d0d2eed211	1522820137279	scripted	6	3	piano	0	exp	8	false	correct	piano	1	4	1	4	3200	drop
planned_sample	4783-4b92f9f8-da8a-46a3-8979-c6d0d2eed211	1522820152367	scripted	7	0	basketball	0	base	5	false	correct	basketball	3	2	3	2	1695	drop
planned_sample	4783-4b92f9f8-da8a-46a3-8979-c6d0d2eed211	1522820167090	scripted	7	1	roundBrush	0	base	5	true	correct	roundBrush	2	4	2	4	4252	drop
planned_sample	4783-4b92f9f8-da8a-46a3-8979-c6d0d2eed211	1522820181415	scripted	7	2	headphones	0	base	5	false	correct	headphones	3	3	3	3	2880	drop
planned_sample	4783-4b92f9f8-da8a-46a3-8979-c6d0d2eed211	1522820192071	scripted	7	3	book	0	base	5	false	correct	book	3	1	3	1	2736	drop
planned_sample	4783-4b92f9f8-da8a-46a3-8979-c6d0d2eed211	1522820201989	scripted	8	0	carrot	0	base	4	false	correct	carrot	2	3	2	3	1021	drop
planned_sample	4783-4b92f9f8-da8a-46a3-8979-c6d0d2eed211	1522820217824	scripted	8	1	mediumMeasuringCup	0	base	4	true	correct	mediumMeasuringCup	4	4	4	4	6846	drop
planned_sample	4783-4b92f9f8-da8a-46a3-8979-c6d0d2eed211	1522820231949	scripted	8	2	waterBottle	0	base	4	false	correct	waterBottle	2	2	2	2	2510	drop
planned_sample	4783-4b92f9f8-da8a-46a3-8979-c6d0d2eed211	1522820247505	scripted	8	3	chair	0	base	4	false	correct	chair	3	2	3	2	3336	drop
