iterationName	gameid	serverTime	condition	trialNum	instructionNum	targetObject	attemptNum	trialType	objectSet	critical	correct	attemptedObject	intendedX	intendedY	attemptedX	attemptedY	responseTime	eventType
planned_sample	7329-6db17199-1eaa-4ece-95b4-a3d06e98ae3d	1522790721852	unscripted	1	0	comb	0	base	8	false	correct	comb	1	1	1	1	6250	drop
planned_sample	7329-6db17199-1eaa-4ece-95b4-a3d06e98ae3d	1522790737913	unscripted	1	1	computerMouse	0	base	8	true	correct	computerMouse	4	2	4	2	3945	drop
planned_sample	7329-6db17199-1eaa-4ece-95b4-a3d06e98ae3d	1522790753278	unscripted	1	2	castIronPan	0	base	8	false	correct	castIronPan	3	3	3	3	3514	drop
planned_sample	7329-6db17199-1eaa-4ece-95b4-a3d06e98ae3d	1522790774355	unscripted	1	3	piano	0	base	8	false	correct	piano	1	4	1	4	3321	drop
planned_sample	7329-6db17199-1eaa-4ece-95b4-a3d06e98ae3d	1522790790048	unscripted	2	0	banana	0	exp	6	false	correct	banana	4	2	4	2	3052	drop
planned_sample	7329-6db17199-1eaa-4ece-95b4-a3d06e98ae3d	1522790804527	unscripted	2	1	dollar	0	exp	6	false	correct	dollar	4	3	4	3	2832	drop
planned_sample	7329-6db17199-1eaa-4ece-95b4-a3d06e98ae3d	1522790819190	unscripted	2	1	boardEraser	1	exp	6	true	incorrect	pencilEraser	2	3	1	2	2860	drop
planned_sample	7329-6db17199-1eaa-4ece-95b4-a3d06e98ae3d	1522790842986	unscripted	2	2	boardEraser	0	exp	6	true	correct	boardEraser	2	3	2	3	5603	drop
planned_sample	7329-6db17199-1eaa-4ece-95b4-a3d06e98ae3d	1522790862654	unscripted	2	3	feather	0	exp	6	false	correct	feather	2	4	2	4	2830	drop
planned_sample	7329-6db17199-1eaa-4ece-95b4-a3d06e98ae3d	1522790882074	unscripted	3	-1	basketball	1	exp	5	false	incorrect	basketball	3	2	3	3	6097	drop
planned_sample	7329-6db17199-1eaa-4ece-95b4-a3d06e98ae3d	1522790883468	unscripted	3	-1	basketball	0	exp	5	false	correct	basketball	3	2	3	2	7491	drop
planned_sample	7329-6db17199-1eaa-4ece-95b4-a3d06e98ae3d	1522790899878	unscripted	3	0	roundBrush	1	exp	5	true	incorrect	hairBrush	2	4	3	1	3393	drop
planned_sample	7329-6db17199-1eaa-4ece-95b4-a3d06e98ae3d	1522790922115	unscripted	3	1	roundBrush	0	exp	5	true	correct	roundBrush	2	4	2	4	5394	drop
planned_sample	7329-6db17199-1eaa-4ece-95b4-a3d06e98ae3d	1522790938080	unscripted	3	2	headphones	0	exp	5	false	correct	headphones	3	3	3	3	3173	drop
planned_sample	7329-6db17199-1eaa-4ece-95b4-a3d06e98ae3d	1522790953973	unscripted	3	3	book	0	exp	5	false	correct	book	3	1	3	1	2475	drop
planned_sample	7329-6db17199-1eaa-4ece-95b4-a3d06e98ae3d	1522790967871	unscripted	4	0	magnet	0	base	7	false	correct	magnet	2	4	2	4	3007	drop
planned_sample	7329-6db17199-1eaa-4ece-95b4-a3d06e98ae3d	1522790981005	unscripted	4	1	handcuffs	0	base	7	false	correct	handcuffs	4	3	4	3	2149	drop
planned_sample	7329-6db17199-1eaa-4ece-95b4-a3d06e98ae3d	1522790996269	unscripted	4	2	pandaToy	0	base	7	false	correct	pandaToy	3	2	3	2	4593	drop
planned_sample	7329-6db17199-1eaa-4ece-95b4-a3d06e98ae3d	1522791008972	unscripted	4	3	mediumCandle	0	base	7	true	correct	mediumCandle	1	2	1	2	2992	drop
planned_sample	7329-6db17199-1eaa-4ece-95b4-a3d06e98ae3d	1522791024325	unscripted	5	0	binoculars	0	exp	2	false	correct	binoculars	2	4	2	4	2401	drop
planned_sample	7329-6db17199-1eaa-4ece-95b4-a3d06e98ae3d	1522791039385	unscripted	5	1	wrench	0	exp	2	false	correct	wrench	2	1	2	1	2865	drop
planned_sample	7329-6db17199-1eaa-4ece-95b4-a3d06e98ae3d	1522791057081	unscripted	5	2	middleBlock	0	exp	2	true	correct	middleBlock	3	3	3	3	4843	drop
planned_sample	7329-6db17199-1eaa-4ece-95b4-a3d06e98ae3d	1522791071477	unscripted	5	3	coffeeMug	0	exp	2	false	correct	coffeeMug	2	2	2	2	2905	drop
planned_sample	7329-6db17199-1eaa-4ece-95b4-a3d06e98ae3d	1522791083988	unscripted	6	0	airplane	0	exp	1	false	correct	airplane	3	1	3	1	2452	drop
planned_sample	7329-6db17199-1eaa-4ece-95b4-a3d06e98ae3d	1522791099144	unscripted	6	1	sunGlasses	0	exp	1	true	correct	sunGlasses	4	4	4	4	2942	drop
planned_sample	7329-6db17199-1eaa-4ece-95b4-a3d06e98ae3d	1522791116522	unscripted	6	2	barrel	0	exp	1	false	correct	barrel	4	3	4	3	2443	drop
planned_sample	7329-6db17199-1eaa-4ece-95b4-a3d06e98ae3d	1522791134072	unscripted	6	3	saxophone	0	exp	1	false	correct	saxophone	2	3	2	3	2608	drop
planned_sample	7329-6db17199-1eaa-4ece-95b4-a3d06e98ae3d	1522791151649	unscripted	7	0	scissors	0	base	3	false	correct	scissors	2	2	2	2	2912	drop
planned_sample	7329-6db17199-1eaa-4ece-95b4-a3d06e98ae3d	1522791166586	unscripted	7	1	knife	0	base	3	false	correct	knife	3	4	3	4	2110	drop
planned_sample	7329-6db17199-1eaa-4ece-95b4-a3d06e98ae3d	1522791181018	unscripted	7	2	barOfSoap	0	base	3	false	correct	barOfSoap	3	3	3	3	2082	drop
planned_sample	7329-6db17199-1eaa-4ece-95b4-a3d06e98ae3d	1522791198794	unscripted	7	3	cassetteTape	0	base	3	true	correct	cassetteTape	3	2	3	2	2223	drop
planned_sample	7329-6db17199-1eaa-4ece-95b4-a3d06e98ae3d	1522791214762	unscripted	8	0	carrot	0	base	4	false	correct	carrot	2	3	2	3	2024	drop
planned_sample	7329-6db17199-1eaa-4ece-95b4-a3d06e98ae3d	1522791232663	unscripted	8	1	mediumMeasuringCup	0	base	4	true	correct	mediumMeasuringCup	4	4	4	4	4118	drop
planned_sample	7329-6db17199-1eaa-4ece-95b4-a3d06e98ae3d	1522791246211	unscripted	8	2	waterBottle	0	base	4	false	correct	waterBottle	2	2	2	2	2214	drop
planned_sample	7329-6db17199-1eaa-4ece-95b4-a3d06e98ae3d	1522791260369	unscripted	8	3	chair	0	base	4	false	correct	chair	3	2	3	2	2681	drop
