,attemptNum,attemptedObject,attemptedX,attemptedY,condition,correct,critical,eventType,gameid,instructionNum,intendedX,intendedY,iterationName,objectSet,responseTime,serverTime,targetObject,trialNum,trialType
0,0,magnet,2,4,unscripted,correct,False,drop,0043-06d2e329-051d-4c4b-898a-1b45447c5290,0,2,4,planned_sample,7,6833,1522820525906.0,magnet,1,base
1,0,handcuffs,4,3,unscripted,correct,False,drop,0043-06d2e329-051d-4c4b-898a-1b45447c5290,1,4,3,planned_sample,7,3323,1522820544569.0,handcuffs,1,base
2,0,pandaToy,3,2,unscripted,correct,False,drop,0043-06d2e329-051d-4c4b-898a-1b45447c5290,2,3,2,planned_sample,7,3781,1522820558685.0,pandaToy,1,base
3,0,mediumCandle,1,2,unscripted,correct,True,drop,0043-06d2e329-051d-4c4b-898a-1b45447c5290,3,1,2,planned_sample,7,10798,1522820581083.0,mediumCandle,1,base
4,0,scissors,2,2,unscripted,correct,False,drop,0043-06d2e329-051d-4c4b-898a-1b45447c5290,0,2,2,planned_sample,3,24039,1522820621807.0,scissors,2,exp
5,0,knife,3,4,unscripted,correct,False,drop,0043-06d2e329-051d-4c4b-898a-1b45447c5290,1,3,4,planned_sample,3,3266,1522820636769.0,knife,2,exp
6,0,barOfSoap,3,3,unscripted,correct,False,drop,0043-06d2e329-051d-4c4b-898a-1b45447c5290,2,3,3,planned_sample,3,3557,1522820650196.0,barOfSoap,2,exp
7,0,cassetteTape,3,2,unscripted,correct,True,drop,0043-06d2e329-051d-4c4b-898a-1b45447c5290,3,3,2,planned_sample,3,3830,1522820666318.0,cassetteTape,2,exp
8,0,comb,1,1,unscripted,correct,False,drop,0043-06d2e329-051d-4c4b-898a-1b45447c5290,0,1,1,planned_sample,8,3346,1522820679785.0,comb,3,exp
9,1,toyMouse,1,2,unscripted,incorrect,True,drop,0043-06d2e329-051d-4c4b-898a-1b45447c5290,0,4,2,planned_sample,8,2389,1522820693088.0,computerMouse,3,exp
10,0,computerMouse,4,2,unscripted,correct,True,drop,0043-06d2e329-051d-4c4b-898a-1b45447c5290,1,4,2,planned_sample,8,4620,1522820707807.0,computerMouse,3,exp
11,0,castIronPan,3,3,unscripted,correct,False,drop,0043-06d2e329-051d-4c4b-898a-1b45447c5290,2,3,3,planned_sample,8,3713,1522820723253.0,castIronPan,3,exp
12,0,piano,1,4,unscripted,correct,False,drop,0043-06d2e329-051d-4c4b-898a-1b45447c5290,3,1,4,planned_sample,8,3380,1522820736846.0,piano,3,exp
13,0,airplane,3,1,unscripted,correct,False,drop,0043-06d2e329-051d-4c4b-898a-1b45447c5290,0,3,1,planned_sample,1,5621,1522820758808.0,airplane,4,base
14,0,sunGlasses,4,4,unscripted,correct,True,drop,0043-06d2e329-051d-4c4b-898a-1b45447c5290,1,4,4,planned_sample,1,4217,1522820775829.0,sunGlasses,4,base
15,0,barrel,4,3,unscripted,correct,False,drop,0043-06d2e329-051d-4c4b-898a-1b45447c5290,2,4,3,planned_sample,1,2859,1522820789805.0,barrel,4,base
16,0,saxophone,2,3,unscripted,correct,False,drop,0043-06d2e329-051d-4c4b-898a-1b45447c5290,3,2,3,planned_sample,1,3598,1522820807203.0,saxophone,4,base
17,0,basketball,3,2,unscripted,correct,False,drop,0043-06d2e329-051d-4c4b-898a-1b45447c5290,0,3,2,planned_sample,5,3079,1522820822697.0,basketball,5,exp
18,1,hairBrush,3,1,unscripted,incorrect,True,drop,0043-06d2e329-051d-4c4b-898a-1b45447c5290,0,2,4,planned_sample,5,5103,1522820853111.0,roundBrush,5,exp
19,0,roundBrush,2,4,unscripted,correct,True,drop,0043-06d2e329-051d-4c4b-898a-1b45447c5290,1,2,4,planned_sample,5,7621,1522820885060.0,roundBrush,5,exp
20,0,headphones,3,3,unscripted,correct,False,drop,0043-06d2e329-051d-4c4b-898a-1b45447c5290,2,3,3,planned_sample,5,3836,1522820903749.0,headphones,5,exp
21,0,book,3,1,unscripted,correct,False,drop,0043-06d2e329-051d-4c4b-898a-1b45447c5290,3,3,1,planned_sample,5,2616,1522820927685.0,book,5,exp
22,0,carrot,2,3,unscripted,correct,False,drop,0043-06d2e329-051d-4c4b-898a-1b45447c5290,0,2,3,planned_sample,4,2464,1522820947782.0,carrot,6,exp
23,0,mediumMeasuringCup,4,4,unscripted,correct,True,drop,0043-06d2e329-051d-4c4b-898a-1b45447c5290,1,4,4,planned_sample,4,13066,1522820975319.0,mediumMeasuringCup,6,exp
24,0,waterBottle,2,2,unscripted,correct,False,drop,0043-06d2e329-051d-4c4b-898a-1b45447c5290,2,2,2,planned_sample,4,4103,1522820993355.0,waterBottle,6,exp
25,0,chair,3,2,unscripted,correct,False,drop,0043-06d2e329-051d-4c4b-898a-1b45447c5290,3,3,2,planned_sample,4,2857,1522821011644.0,chair,6,exp
26,0,binoculars,2,4,unscripted,correct,False,drop,0043-06d2e329-051d-4c4b-898a-1b45447c5290,0,2,4,planned_sample,2,2988,1522821027734.0,binoculars,7,base
27,0,wrench,2,1,unscripted,correct,False,drop,0043-06d2e329-051d-4c4b-898a-1b45447c5290,1,2,1,planned_sample,2,3730,1522821046601.0,wrench,7,base
28,0,middleBlock,3,3,unscripted,correct,True,drop,0043-06d2e329-051d-4c4b-898a-1b45447c5290,2,3,3,planned_sample,2,3762,1522821067864.0,middleBlock,7,base
29,0,coffeeMug,2,2,unscripted,correct,False,drop,0043-06d2e329-051d-4c4b-898a-1b45447c5290,3,2,2,planned_sample,2,4079,1522821090033.0,coffeeMug,7,base
30,0,banana,4,2,unscripted,correct,False,drop,0043-06d2e329-051d-4c4b-898a-1b45447c5290,0,4,2,planned_sample,6,8568,1522821111353.0,banana,8,base
31,0,dollar,4,3,unscripted,correct,False,drop,0043-06d2e329-051d-4c4b-898a-1b45447c5290,1,4,3,planned_sample,6,1930,1522821125263.0,dollar,8,base
32,0,boardEraser,2,3,unscripted,correct,True,drop,0043-06d2e329-051d-4c4b-898a-1b45447c5290,2,2,3,planned_sample,6,4675,1522821146693.0,boardEraser,8,base
33,0,feather,2,4,unscripted,correct,False,drop,0043-06d2e329-051d-4c4b-898a-1b45447c5290,3,2,4,planned_sample,6,2688,1522821162052.0,feather,8,base
34,0,scissors,2,2,scripted,correct,False,drop,0054-0f179884-b136-4292-8dd7-fb6fb720c7f0,0,2,2,planned_sample,3,5555,1522819897637.0,scissors,1,base
35,0,knife,3,4,scripted,correct,False,drop,0054-0f179884-b136-4292-8dd7-fb6fb720c7f0,1,3,4,planned_sample,3,4662,1522819926926.0,knife,1,base
36,0,barOfSoap,3,3,scripted,correct,False,drop,0054-0f179884-b136-4292-8dd7-fb6fb720c7f0,2,3,3,planned_sample,3,10115,1522819950942.0,barOfSoap,1,base
37,0,cassetteTape,3,2,scripted,correct,True,drop,0054-0f179884-b136-4292-8dd7-fb6fb720c7f0,3,3,2,planned_sample,3,3870,1522819963530.0,cassetteTape,1,base
38,0,comb,1,1,scripted,correct,False,drop,0054-0f179884-b136-4292-8dd7-fb6fb720c7f0,0,1,1,planned_sample,8,3144,1522819985983.0,comb,2,exp
39,1,toyMouse,1,2,scripted,incorrect,True,drop,0054-0f179884-b136-4292-8dd7-fb6fb720c7f0,0,4,2,planned_sample,8,3014,1522820001773.0,computerMouse,2,exp
40,2,toyMouse,1,2,scripted,incorrect,True,drop,0054-0f179884-b136-4292-8dd7-fb6fb720c7f0,0,4,2,planned_sample,8,10321,1522820065108.0,computerMouse,2,exp
41,0,computerMouse,4,2,scripted,correct,True,drop,0054-0f179884-b136-4292-8dd7-fb6fb720c7f0,1,4,2,planned_sample,8,3949,1522820122741.0,computerMouse,2,exp
42,0,castIronPan,3,3,scripted,correct,False,drop,0054-0f179884-b136-4292-8dd7-fb6fb720c7f0,2,3,3,planned_sample,8,5387,1522820143948.0,castIronPan,2,exp
43,0,piano,1,4,scripted,correct,False,drop,0054-0f179884-b136-4292-8dd7-fb6fb720c7f0,3,1,4,planned_sample,8,5918,1522820188383.0,piano,2,exp
44,0,carrot,2,3,scripted,correct,False,drop,0054-0f179884-b136-4292-8dd7-fb6fb720c7f0,0,2,3,planned_sample,4,3878,1522820203948.0,carrot,3,exp
45,1,largeMeasuringCup,1,4,scripted,incorrect,True,drop,0054-0f179884-b136-4292-8dd7-fb6fb720c7f0,0,4,4,planned_sample,4,6599,1522820223419.0,mediumMeasuringCup,3,exp
46,0,mediumMeasuringCup,4,4,scripted,correct,True,drop,0054-0f179884-b136-4292-8dd7-fb6fb720c7f0,1,4,4,planned_sample,4,7395,1522820263190.0,mediumMeasuringCup,3,exp
47,0,waterBottle,2,2,scripted,correct,False,drop,0054-0f179884-b136-4292-8dd7-fb6fb720c7f0,2,2,2,planned_sample,4,6668,1522820346014.0,waterBottle,3,exp
48,0,chair,3,2,scripted,correct,False,drop,0054-0f179884-b136-4292-8dd7-fb6fb720c7f0,3,3,2,planned_sample,4,3601,1522820362855.0,chair,3,exp
49,0,airplane,3,1,scripted,correct,False,drop,0054-0f179884-b136-4292-8dd7-fb6fb720c7f0,0,3,1,planned_sample,1,5436,1522820382753.0,airplane,4,base
50,0,sunGlasses,4,4,scripted,correct,True,drop,0054-0f179884-b136-4292-8dd7-fb6fb720c7f0,1,4,4,planned_sample,1,6112,1522820400020.0,sunGlasses,4,base
51,0,barrel,4,3,scripted,correct,False,drop,0054-0f179884-b136-4292-8dd7-fb6fb720c7f0,2,4,3,planned_sample,1,4459,1522820414809.0,barrel,4,base
52,0,saxophone,2,3,scripted,correct,False,drop,0054-0f179884-b136-4292-8dd7-fb6fb720c7f0,3,2,3,planned_sample,1,5391,1522820443570.0,saxophone,4,base
53,0,basketball,3,2,scripted,correct,False,drop,0054-0f179884-b136-4292-8dd7-fb6fb720c7f0,0,3,2,planned_sample,5,4247,1522820464419.0,basketball,5,base
54,0,roundBrush,2,4,scripted,correct,True,drop,0054-0f179884-b136-4292-8dd7-fb6fb720c7f0,1,2,4,planned_sample,5,4756,1522820496027.0,roundBrush,5,base
55,0,headphones,3,3,scripted,correct,False,drop,0054-0f179884-b136-4292-8dd7-fb6fb720c7f0,2,3,3,planned_sample,5,3024,1522820547269.0,headphones,5,base
56,0,book,3,1,scripted,correct,False,drop,0054-0f179884-b136-4292-8dd7-fb6fb720c7f0,3,3,1,planned_sample,5,4766,1522820577356.0,book,5,base
57,0,binoculars,2,4,scripted,correct,False,drop,0054-0f179884-b136-4292-8dd7-fb6fb720c7f0,0,2,4,planned_sample,2,4316,1522820592118.0,binoculars,6,exp
58,0,wrench,2,1,scripted,correct,False,drop,0054-0f179884-b136-4292-8dd7-fb6fb720c7f0,1,2,1,planned_sample,2,41396,1522820648855.0,wrench,6,exp
59,1,bottomBlock,3,4,scripted,incorrect,True,drop,0054-0f179884-b136-4292-8dd7-fb6fb720c7f0,1,3,3,planned_sample,2,6680,1522820681183.0,middleBlock,6,exp
60,0,middleBlock,3,3,scripted,correct,True,drop,0054-0f179884-b136-4292-8dd7-fb6fb720c7f0,2,3,3,planned_sample,2,5052,1522820736152.0,middleBlock,6,exp
61,0,coffeeMug,2,2,scripted,correct,False,drop,0054-0f179884-b136-4292-8dd7-fb6fb720c7f0,3,2,2,planned_sample,2,3037,1522820752742.0,coffeeMug,6,exp
62,0,banana,4,2,scripted,correct,False,drop,0054-0f179884-b136-4292-8dd7-fb6fb720c7f0,0,4,2,planned_sample,6,5650,1522820779773.0,banana,7,exp
63,0,dollar,4,3,scripted,correct,False,drop,0054-0f179884-b136-4292-8dd7-fb6fb720c7f0,1,4,3,planned_sample,6,2343,1522820794444.0,dollar,7,exp
64,1,pencilEraser,1,2,scripted,incorrect,True,drop,0054-0f179884-b136-4292-8dd7-fb6fb720c7f0,1,2,3,planned_sample,6,4360,1522820811624.0,boardEraser,7,exp
65,0,boardEraser,2,3,scripted,correct,True,drop,0054-0f179884-b136-4292-8dd7-fb6fb720c7f0,2,2,3,planned_sample,6,7800,1522820843926.0,boardEraser,7,exp
66,0,feather,2,4,scripted,correct,False,drop,0054-0f179884-b136-4292-8dd7-fb6fb720c7f0,3,2,4,planned_sample,6,2813,1522820858476.0,feather,7,exp
67,0,magnet,2,4,scripted,correct,False,drop,0054-0f179884-b136-4292-8dd7-fb6fb720c7f0,0,2,4,planned_sample,7,6672,1522820891381.0,magnet,8,base
68,0,handcuffs,4,3,scripted,correct,False,drop,0054-0f179884-b136-4292-8dd7-fb6fb720c7f0,1,4,3,planned_sample,7,3712,1522820922877.0,handcuffs,8,base
69,0,pandaToy,3,2,scripted,correct,False,drop,0054-0f179884-b136-4292-8dd7-fb6fb720c7f0,2,3,2,planned_sample,7,4721,1522820944041.0,pandaToy,8,base
70,0,mediumCandle,1,2,scripted,correct,True,drop,0054-0f179884-b136-4292-8dd7-fb6fb720c7f0,3,1,2,planned_sample,7,10177,1522820975564.0,mediumCandle,8,base
71,0,carrot,2,3,scripted,correct,False,drop,0093-b4e1ce5c-2e5c-462a-bfed-87fa81611139,0,2,3,planned_sample,4,14533,1522820714690.0,carrot,1,base
72,0,mediumMeasuringCup,4,4,scripted,correct,True,drop,0093-b4e1ce5c-2e5c-462a-bfed-87fa81611139,1,4,4,planned_sample,4,2517,1522820735475.0,mediumMeasuringCup,1,base
73,0,waterBottle,2,2,scripted,correct,False,drop,0093-b4e1ce5c-2e5c-462a-bfed-87fa81611139,2,2,2,planned_sample,4,3107,1522820775336.0,waterBottle,1,base
74,0,chair,3,2,scripted,correct,False,drop,0093-b4e1ce5c-2e5c-462a-bfed-87fa81611139,3,3,2,planned_sample,4,4804,1522820801967.0,chair,1,base
75,0,binoculars,2,4,scripted,correct,False,drop,0093-b4e1ce5c-2e5c-462a-bfed-87fa81611139,0,2,4,planned_sample,2,2462,1522820825560.0,binoculars,2,exp
76,1,wrench,4,1,scripted,incorrect,False,drop,0093-b4e1ce5c-2e5c-462a-bfed-87fa81611139,0,2,1,planned_sample,2,5730,1522820855431.0,wrench,2,exp
77,0,wrench,2,1,scripted,correct,False,drop,0093-b4e1ce5c-2e5c-462a-bfed-87fa81611139,1,2,1,planned_sample,2,5653,1522820885420.0,wrench,2,exp
78,1,binoculars,1,4,scripted,incorrect,True,drop,0093-b4e1ce5c-2e5c-462a-bfed-87fa81611139,1,3,3,planned_sample,2,10433,1522820908223.0,middleBlock,2,exp
79,2,bottomBlock,3,4,scripted,incorrect,True,drop,0093-b4e1ce5c-2e5c-462a-bfed-87fa81611139,1,3,3,planned_sample,2,3080,1522820941335.0,middleBlock,2,exp
80,3,bottomBlock,3,4,scripted,incorrect,True,drop,0093-b4e1ce5c-2e5c-462a-bfed-87fa81611139,1,3,3,planned_sample,2,3671,1522820988079.0,middleBlock,2,exp
81,0,middleBlock,3,3,scripted,correct,True,drop,0093-b4e1ce5c-2e5c-462a-bfed-87fa81611139,2,3,3,planned_sample,2,11031,1522821062379.0,middleBlock,2,exp
82,0,coffeeMug,2,2,scripted,correct,False,drop,0093-b4e1ce5c-2e5c-462a-bfed-87fa81611139,3,2,2,planned_sample,2,4768,1522821099150.0,coffeeMug,2,exp
83,0,basketball,3,2,scripted,correct,False,drop,0093-b4e1ce5c-2e5c-462a-bfed-87fa81611139,0,3,2,planned_sample,5,6911,1522821129319.0,basketball,3,base
84,0,roundBrush,2,4,scripted,correct,True,drop,0093-b4e1ce5c-2e5c-462a-bfed-87fa81611139,1,2,4,planned_sample,5,7028,1522821161994.0,roundBrush,3,base
85,0,headphones,3,3,scripted,correct,False,drop,0093-b4e1ce5c-2e5c-462a-bfed-87fa81611139,2,3,3,planned_sample,5,3282,1522821194602.0,headphones,3,base
86,0,book,3,1,scripted,correct,False,drop,0093-b4e1ce5c-2e5c-462a-bfed-87fa81611139,3,3,1,planned_sample,5,5671,1522821209599.0,book,3,base
87,0,magnet,2,4,scripted,correct,False,drop,0093-b4e1ce5c-2e5c-462a-bfed-87fa81611139,0,2,4,planned_sample,7,4883,1522821225205.0,magnet,4,base
88,0,handcuffs,4,3,scripted,correct,False,drop,0093-b4e1ce5c-2e5c-462a-bfed-87fa81611139,1,4,3,planned_sample,7,5875,1522821256357.0,handcuffs,4,base
89,0,pandaToy,3,2,scripted,correct,False,drop,0093-b4e1ce5c-2e5c-462a-bfed-87fa81611139,2,3,2,planned_sample,7,16425,1522821310079.0,pandaToy,4,base
90,0,mediumCandle,1,2,scripted,correct,True,drop,0093-b4e1ce5c-2e5c-462a-bfed-87fa81611139,3,1,2,planned_sample,7,10950,1522821332285.0,mediumCandle,4,base
91,0,comb,1,1,scripted,correct,False,drop,0093-b4e1ce5c-2e5c-462a-bfed-87fa81611139,0,1,1,planned_sample,8,14532,1522821384397.0,comb,5,exp
92,0,computerMouse,4,2,scripted,correct,True,drop,0093-b4e1ce5c-2e5c-462a-bfed-87fa81611139,1,4,2,planned_sample,8,4978,1522821423158.0,computerMouse,5,exp
93,0,castIronPan,3,3,scripted,correct,False,drop,0093-b4e1ce5c-2e5c-462a-bfed-87fa81611139,2,3,3,planned_sample,8,18416,1522821482975.0,castIronPan,5,exp
94,0,piano,1,4,scripted,correct,False,drop,0093-b4e1ce5c-2e5c-462a-bfed-87fa81611139,3,1,4,planned_sample,8,3956,1522821510348.0,piano,5,exp
95,0,airplane,3,1,scripted,correct,False,drop,0093-b4e1ce5c-2e5c-462a-bfed-87fa81611139,0,3,1,planned_sample,1,5279,1522821539120.0,airplane,6,exp
96,0,sunGlasses,4,4,scripted,correct,True,drop,0093-b4e1ce5c-2e5c-462a-bfed-87fa81611139,1,4,4,planned_sample,1,19219,1522821583227.0,sunGlasses,6,exp
97,0,barrel,4,3,scripted,correct,False,drop,0093-b4e1ce5c-2e5c-462a-bfed-87fa81611139,2,4,3,planned_sample,1,8887,1522821600834.0,barrel,6,exp
98,0,saxophone,2,3,scripted,correct,False,drop,0093-b4e1ce5c-2e5c-462a-bfed-87fa81611139,3,2,3,planned_sample,1,5101,1522821627609.0,saxophone,6,exp
99,0,scissors,2,2,scripted,correct,False,drop,0093-b4e1ce5c-2e5c-462a-bfed-87fa81611139,0,2,2,planned_sample,3,12567,1522821672661.0,scissors,7,base
100,0,knife,3,4,scripted,correct,False,drop,0093-b4e1ce5c-2e5c-462a-bfed-87fa81611139,1,3,4,planned_sample,3,3988,1522821704367.0,knife,7,base
101,0,barOfSoap,3,3,scripted,correct,False,drop,0093-b4e1ce5c-2e5c-462a-bfed-87fa81611139,2,3,3,planned_sample,3,4680,1522821728729.0,barOfSoap,7,base
102,0,cassetteTape,3,2,scripted,correct,True,drop,0093-b4e1ce5c-2e5c-462a-bfed-87fa81611139,3,3,2,planned_sample,3,5868,1522821744427.0,cassetteTape,7,base
103,0,banana,4,2,scripted,correct,False,drop,0093-b4e1ce5c-2e5c-462a-bfed-87fa81611139,0,4,2,planned_sample,6,4119,1522821758500.0,banana,8,exp
104,0,dollar,4,3,scripted,correct,False,drop,0093-b4e1ce5c-2e5c-462a-bfed-87fa81611139,1,4,3,planned_sample,6,7424,1522821788779.0,dollar,8,exp
105,1,pencilEraser,1,2,scripted,incorrect,True,drop,0093-b4e1ce5c-2e5c-462a-bfed-87fa81611139,1,2,3,planned_sample,6,4803,1522821813814.0,boardEraser,8,exp
106,2,pencilEraser,1,2,scripted,incorrect,True,drop,0093-b4e1ce5c-2e5c-462a-bfed-87fa81611139,1,2,3,planned_sample,6,3637,1522821841026.0,boardEraser,8,exp
107,3,pencilEraser,1,2,scripted,incorrect,True,drop,0093-b4e1ce5c-2e5c-462a-bfed-87fa81611139,1,2,3,planned_sample,6,3327,1522821872172.0,boardEraser,8,exp
108,4,pencilEraser,2,3,scripted,incorrect,True,drop,0093-b4e1ce5c-2e5c-462a-bfed-87fa81611139,1,2,3,planned_sample,6,4887,1522821915722.0,boardEraser,8,exp
109,5,boardEraser,3,4,scripted,incorrect,True,drop,0093-b4e1ce5c-2e5c-462a-bfed-87fa81611139,1,2,3,planned_sample,6,9262,1522821974601.0,boardEraser,8,exp
110,6,pencilEraser,1,2,scripted,incorrect,True,drop,0093-b4e1ce5c-2e5c-462a-bfed-87fa81611139,1,2,3,planned_sample,6,8624,1522822033349.0,boardEraser,8,exp
111,0,boardEraser,2,3,scripted,correct,True,drop,0093-b4e1ce5c-2e5c-462a-bfed-87fa81611139,2,2,3,planned_sample,6,8827,1522822069385.0,boardEraser,8,exp
112,0,feather,2,4,scripted,correct,False,drop,0093-b4e1ce5c-2e5c-462a-bfed-87fa81611139,3,2,4,planned_sample,6,5079,1522822097521.0,feather,8,exp
113,0,banana,4,2,scripted,correct,False,drop,0095-03bb67a7-ae89-402d-9f7f-c5898784e63f,0,4,2,planned_sample,6,13383,1522802419598.0,banana,1,base
114,0,dollar,4,3,scripted,correct,False,drop,0095-03bb67a7-ae89-402d-9f7f-c5898784e63f,1,4,3,planned_sample,6,17422,1522802461149.0,dollar,1,base
115,0,boardEraser,2,3,scripted,correct,True,drop,0095-03bb67a7-ae89-402d-9f7f-c5898784e63f,2,2,3,planned_sample,6,6337,1522802490189.0,boardEraser,1,base
116,0,feather,2,4,scripted,correct,False,drop,0095-03bb67a7-ae89-402d-9f7f-c5898784e63f,3,2,4,planned_sample,6,2994,1522802524513.0,feather,1,base
117,0,airplane,3,1,scripted,correct,False,drop,0095-03bb67a7-ae89-402d-9f7f-c5898784e63f,0,3,1,planned_sample,1,4651,1522802570714.0,airplane,2,exp
118,0,sunGlasses,4,4,scripted,correct,True,drop,0095-03bb67a7-ae89-402d-9f7f-c5898784e63f,1,4,4,planned_sample,1,5370,1522802590049.0,sunGlasses,2,exp
119,0,barrel,4,3,scripted,correct,False,drop,0095-03bb67a7-ae89-402d-9f7f-c5898784e63f,2,4,3,planned_sample,1,4186,1522802610392.0,barrel,2,exp
120,0,saxophone,2,3,scripted,correct,False,drop,0095-03bb67a7-ae89-402d-9f7f-c5898784e63f,3,2,3,planned_sample,1,3129,1522802634657.0,saxophone,2,exp
121,0,carrot,2,3,scripted,correct,False,drop,0095-03bb67a7-ae89-402d-9f7f-c5898784e63f,0,2,3,planned_sample,4,3220,1522802647122.0,carrot,3,exp
122,1,largeMeasuringCup,1,4,scripted,incorrect,True,drop,0095-03bb67a7-ae89-402d-9f7f-c5898784e63f,0,4,4,planned_sample,4,9266,1522802670860.0,mediumMeasuringCup,3,exp
123,0,mediumMeasuringCup,4,4,scripted,correct,True,drop,0095-03bb67a7-ae89-402d-9f7f-c5898784e63f,1,4,4,planned_sample,4,7714,1522802712053.0,mediumMeasuringCup,3,exp
124,0,waterBottle,2,2,scripted,correct,False,drop,0095-03bb67a7-ae89-402d-9f7f-c5898784e63f,2,2,2,planned_sample,4,8744,1522802756597.0,waterBottle,3,exp
125,0,chair,3,2,scripted,correct,False,drop,0095-03bb67a7-ae89-402d-9f7f-c5898784e63f,3,3,2,planned_sample,4,22082,1522802825168.0,chair,3,exp
126,0,basketball,3,2,scripted,correct,False,drop,0095-03bb67a7-ae89-402d-9f7f-c5898784e63f,0,3,2,planned_sample,5,4579,1522802860909.0,basketball,4,base
127,0,roundBrush,2,4,scripted,correct,True,drop,0095-03bb67a7-ae89-402d-9f7f-c5898784e63f,1,2,4,planned_sample,5,7422,1522802881722.0,roundBrush,4,base
128,0,headphones,3,3,scripted,correct,False,drop,0095-03bb67a7-ae89-402d-9f7f-c5898784e63f,2,3,3,planned_sample,5,7062,1522802914802.0,headphones,4,base
129,0,book,3,1,scripted,correct,False,drop,0095-03bb67a7-ae89-402d-9f7f-c5898784e63f,3,3,1,planned_sample,5,2830,1522802929754.0,book,4,base
130,0,magnet,2,4,scripted,correct,False,drop,0095-03bb67a7-ae89-402d-9f7f-c5898784e63f,0,2,4,planned_sample,7,3583,1522802945655.0,magnet,5,base
131,0,handcuffs,4,3,scripted,correct,False,drop,0095-03bb67a7-ae89-402d-9f7f-c5898784e63f,1,4,3,planned_sample,7,4364,1522802968086.0,handcuffs,5,base
132,0,pandaToy,3,2,scripted,correct,False,drop,0095-03bb67a7-ae89-402d-9f7f-c5898784e63f,2,3,2,planned_sample,7,2789,1522802987968.0,pandaToy,5,base
133,0,mediumCandle,1,2,scripted,correct,True,drop,0095-03bb67a7-ae89-402d-9f7f-c5898784e63f,3,1,2,planned_sample,7,7560,1522803006485.0,mediumCandle,5,base
134,0,scissors,2,2,scripted,correct,False,drop,0095-03bb67a7-ae89-402d-9f7f-c5898784e63f,0,2,2,planned_sample,3,2367,1522803022990.0,scissors,6,exp
135,0,knife,3,4,scripted,correct,False,drop,0095-03bb67a7-ae89-402d-9f7f-c5898784e63f,1,3,4,planned_sample,3,5624,1522803039410.0,knife,6,exp
136,0,barOfSoap,3,3,scripted,correct,False,drop,0095-03bb67a7-ae89-402d-9f7f-c5898784e63f,2,3,3,planned_sample,3,5682,1522803071229.0,barOfSoap,6,exp
137,1,rollOfTape,4,2,scripted,incorrect,True,drop,0095-03bb67a7-ae89-402d-9f7f-c5898784e63f,2,3,2,planned_sample,3,5365,1522803088720.0,cassetteTape,6,exp
138,0,cassetteTape,3,2,scripted,correct,True,drop,0095-03bb67a7-ae89-402d-9f7f-c5898784e63f,3,3,2,planned_sample,3,4686,1522803111606.0,cassetteTape,6,exp
139,0,binoculars,2,4,scripted,correct,False,drop,0095-03bb67a7-ae89-402d-9f7f-c5898784e63f,0,2,4,planned_sample,2,5091,1522803129536.0,binoculars,7,exp
140,0,wrench,2,1,scripted,correct,False,drop,0095-03bb67a7-ae89-402d-9f7f-c5898784e63f,1,2,1,planned_sample,2,4654,1522803150686.0,wrench,7,exp
141,1,bottomBlock,3,4,scripted,incorrect,True,drop,0095-03bb67a7-ae89-402d-9f7f-c5898784e63f,1,3,3,planned_sample,2,5327,1522803175853.0,middleBlock,7,exp
142,0,middleBlock,3,3,scripted,correct,True,drop,0095-03bb67a7-ae89-402d-9f7f-c5898784e63f,2,3,3,planned_sample,2,4260,1522803217095.0,middleBlock,7,exp
143,0,coffeeMug,2,2,scripted,correct,False,drop,0095-03bb67a7-ae89-402d-9f7f-c5898784e63f,3,2,2,planned_sample,2,5392,1522803245097.0,coffeeMug,7,exp
144,0,comb,1,1,scripted,correct,False,drop,0095-03bb67a7-ae89-402d-9f7f-c5898784e63f,0,1,1,planned_sample,8,6248,1522803274018.0,comb,8,base
145,0,computerMouse,4,2,scripted,correct,True,drop,0095-03bb67a7-ae89-402d-9f7f-c5898784e63f,1,4,2,planned_sample,8,3178,1522803289846.0,computerMouse,8,base
146,0,castIronPan,3,3,scripted,correct,False,drop,0095-03bb67a7-ae89-402d-9f7f-c5898784e63f,2,3,3,planned_sample,8,6036,1522803314810.0,castIronPan,8,base
147,0,piano,1,4,scripted,correct,False,drop,0095-03bb67a7-ae89-402d-9f7f-c5898784e63f,3,1,4,planned_sample,8,5185,1522803331747.0,piano,8,base
148,0,banana,4,2,unscripted,correct,False,drop,0176-a2c355d9-8f0d-44d3-b8d3-29df824e374f,0,4,2,planned_sample,6,7404,1522794717761.0,banana,1,base
149,1,dollar,2,3,unscripted,incorrect,False,drop,0176-a2c355d9-8f0d-44d3-b8d3-29df824e374f,0,4,3,planned_sample,6,3251,1522794738104.0,dollar,1,base
150,0,dollar,4,3,unscripted,correct,False,drop,0176-a2c355d9-8f0d-44d3-b8d3-29df824e374f,0,4,3,planned_sample,6,4373,1522794739226.0,dollar,1,base
151,0,boardEraser,2,3,unscripted,correct,True,drop,0176-a2c355d9-8f0d-44d3-b8d3-29df824e374f,2,2,3,planned_sample,6,14964,1522794798911.0,boardEraser,1,base
152,1,feather,3,3,unscripted,incorrect,False,drop,0176-a2c355d9-8f0d-44d3-b8d3-29df824e374f,2,2,4,planned_sample,6,6649,1522794825694.0,feather,1,base
153,0,feather,2,4,unscripted,correct,False,drop,0176-a2c355d9-8f0d-44d3-b8d3-29df824e374f,2,2,4,planned_sample,6,7520,1522794826553.0,feather,1,base
154,0,binoculars,2,4,unscripted,correct,False,drop,0176-a2c355d9-8f0d-44d3-b8d3-29df824e374f,0,2,4,planned_sample,2,3573,1522794864472.0,binoculars,2,exp
155,0,wrench,2,1,unscripted,correct,False,drop,0176-a2c355d9-8f0d-44d3-b8d3-29df824e374f,1,2,1,planned_sample,2,2692,1522794906796.0,wrench,2,exp
156,0,middleBlock,3,3,unscripted,correct,True,drop,0176-a2c355d9-8f0d-44d3-b8d3-29df824e374f,2,3,3,planned_sample,2,3092,1522794941045.0,middleBlock,2,exp
157,1,coffeeMug,1,3,unscripted,incorrect,False,drop,0176-a2c355d9-8f0d-44d3-b8d3-29df824e374f,2,2,2,planned_sample,2,2298,1522794999513.0,coffeeMug,2,exp
158,0,coffeeMug,2,2,unscripted,correct,False,drop,0176-a2c355d9-8f0d-44d3-b8d3-29df824e374f,2,2,2,planned_sample,2,3667,1522795000882.0,coffeeMug,2,exp
159,0,basketball,3,2,unscripted,correct,False,drop,0176-a2c355d9-8f0d-44d3-b8d3-29df824e374f,0,3,2,planned_sample,5,2401,1522795034237.0,basketball,3,exp
160,0,roundBrush,2,4,unscripted,correct,True,drop,0176-a2c355d9-8f0d-44d3-b8d3-29df824e374f,1,2,4,planned_sample,5,2210,1522795074087.0,roundBrush,3,exp
161,1,headphones,4,2,unscripted,incorrect,False,drop,0176-a2c355d9-8f0d-44d3-b8d3-29df824e374f,1,3,3,planned_sample,5,3044,1522795092723.0,headphones,3,exp
162,0,headphones,3,3,unscripted,correct,False,drop,0176-a2c355d9-8f0d-44d3-b8d3-29df824e374f,1,3,3,planned_sample,5,3660,1522795093339.0,headphones,3,exp
163,0,book,3,1,unscripted,correct,False,drop,0176-a2c355d9-8f0d-44d3-b8d3-29df824e374f,3,3,1,planned_sample,5,1682,1522795115694.0,book,3,exp
164,1,scissors,1,1,unscripted,incorrect,False,drop,0176-a2c355d9-8f0d-44d3-b8d3-29df824e374f,-1,2,2,planned_sample,3,2131,1522795160215.0,scissors,4,base
165,2,scissors,1,3,unscripted,incorrect,False,drop,0176-a2c355d9-8f0d-44d3-b8d3-29df824e374f,-2,2,2,planned_sample,3,3189,1522795161272.0,scissors,4,base
166,0,scissors,2,2,unscripted,correct,False,drop,0176-a2c355d9-8f0d-44d3-b8d3-29df824e374f,-2,2,2,planned_sample,3,3950,1522795162033.0,scissors,4,base
167,0,binoculars,2,4,scripted,correct,False,drop,0248-0ddbec25-7e2d-4464-9e98-1ebbc125c4df,0,2,4,planned_sample,2,5623,1522799363028.0,binoculars,1,base
168,0,wrench,2,1,scripted,correct,False,drop,0248-0ddbec25-7e2d-4464-9e98-1ebbc125c4df,1,2,1,planned_sample,2,5532,1522799400461.0,wrench,1,base
169,1,stapler,3,4,scripted,incorrect,True,drop,0248-0ddbec25-7e2d-4464-9e98-1ebbc125c4df,1,3,3,planned_sample,2,9143,1522799471332.0,middleBlock,1,base
170,0,middleBlock,3,3,scripted,correct,True,drop,0248-0ddbec25-7e2d-4464-9e98-1ebbc125c4df,2,3,3,planned_sample,2,5399,1522799522854.0,middleBlock,1,base
171,0,coffeeMug,2,2,scripted,correct,False,drop,0248-0ddbec25-7e2d-4464-9e98-1ebbc125c4df,3,2,2,planned_sample,2,8011,1522799553652.0,coffeeMug,1,base
172,0,airplane,3,1,scripted,correct,False,drop,0248-0ddbec25-7e2d-4464-9e98-1ebbc125c4df,0,3,1,planned_sample,1,3356,1522799582871.0,airplane,2,exp
173,0,sunGlasses,4,4,scripted,correct,True,drop,0248-0ddbec25-7e2d-4464-9e98-1ebbc125c4df,1,4,4,planned_sample,1,4105,1522799598453.0,sunGlasses,2,exp
174,0,barrel,4,3,scripted,correct,False,drop,0248-0ddbec25-7e2d-4464-9e98-1ebbc125c4df,2,4,3,planned_sample,1,4211,1522799612031.0,barrel,2,exp
175,0,saxophone,2,3,scripted,correct,False,drop,0248-0ddbec25-7e2d-4464-9e98-1ebbc125c4df,3,2,3,planned_sample,1,3071,1522799633525.0,saxophone,2,exp
176,0,basketball,3,2,scripted,correct,False,drop,0248-0ddbec25-7e2d-4464-9e98-1ebbc125c4df,0,3,2,planned_sample,5,1848,1522799653385.0,basketball,3,base
177,0,roundBrush,2,4,scripted,correct,True,drop,0248-0ddbec25-7e2d-4464-9e98-1ebbc125c4df,1,2,4,planned_sample,5,2563,1522799666006.0,roundBrush,3,base
178,0,headphones,3,3,scripted,correct,False,drop,0248-0ddbec25-7e2d-4464-9e98-1ebbc125c4df,2,3,3,planned_sample,5,4963,1522799692346.0,headphones,3,base
179,0,book,3,1,scripted,correct,False,drop,0248-0ddbec25-7e2d-4464-9e98-1ebbc125c4df,3,3,1,planned_sample,5,2583,1522799708010.0,book,3,base
180,0,carrot,2,3,scripted,correct,False,drop,0248-0ddbec25-7e2d-4464-9e98-1ebbc125c4df,0,2,3,planned_sample,4,3566,1522799722195.0,carrot,4,exp
181,0,mediumMeasuringCup,4,4,scripted,correct,True,drop,0248-0ddbec25-7e2d-4464-9e98-1ebbc125c4df,1,4,4,planned_sample,4,4080,1522799738090.0,mediumMeasuringCup,4,exp
182,0,waterBottle,2,2,scripted,correct,False,drop,0248-0ddbec25-7e2d-4464-9e98-1ebbc125c4df,2,2,2,planned_sample,4,3045,1522799763368.0,waterBottle,4,exp
183,0,chair,3,2,scripted,correct,False,drop,0248-0ddbec25-7e2d-4464-9e98-1ebbc125c4df,3,3,2,planned_sample,4,3372,1522799787973.0,chair,4,exp
184,0,scissors,2,2,scripted,correct,False,drop,0248-0ddbec25-7e2d-4464-9e98-1ebbc125c4df,0,2,2,planned_sample,3,2676,1522799813585.0,scissors,5,exp
185,0,knife,3,4,scripted,correct,False,drop,0248-0ddbec25-7e2d-4464-9e98-1ebbc125c4df,1,3,4,planned_sample,3,2892,1522799825703.0,knife,5,exp
186,0,barOfSoap,3,3,scripted,correct,False,drop,0248-0ddbec25-7e2d-4464-9e98-1ebbc125c4df,2,3,3,planned_sample,3,3092,1522799852964.0,barOfSoap,5,exp
187,0,cassetteTape,3,2,scripted,correct,True,drop,0248-0ddbec25-7e2d-4464-9e98-1ebbc125c4df,3,3,2,planned_sample,3,2932,1522799865582.0,cassetteTape,5,exp
188,0,banana,4,2,scripted,correct,False,drop,0248-0ddbec25-7e2d-4464-9e98-1ebbc125c4df,0,4,2,planned_sample,6,3972,1522799877754.0,banana,6,base
189,0,dollar,4,3,scripted,correct,False,drop,0248-0ddbec25-7e2d-4464-9e98-1ebbc125c4df,1,4,3,planned_sample,6,4353,1522799900116.0,dollar,6,base
190,0,boardEraser,2,3,scripted,correct,True,drop,0248-0ddbec25-7e2d-4464-9e98-1ebbc125c4df,2,2,3,planned_sample,6,3184,1522799913365.0,boardEraser,6,base
191,0,feather,2,4,scripted,correct,False,drop,0248-0ddbec25-7e2d-4464-9e98-1ebbc125c4df,3,2,4,planned_sample,6,3388,1522799933852.0,feather,6,base
192,0,comb,1,1,scripted,correct,False,drop,0248-0ddbec25-7e2d-4464-9e98-1ebbc125c4df,0,1,1,planned_sample,8,2637,1522799952330.0,comb,7,base
193,0,computerMouse,4,2,scripted,correct,True,drop,0248-0ddbec25-7e2d-4464-9e98-1ebbc125c4df,1,4,2,planned_sample,8,2600,1522799964357.0,computerMouse,7,base
194,0,castIronPan,3,3,scripted,correct,False,drop,0248-0ddbec25-7e2d-4464-9e98-1ebbc125c4df,2,3,3,planned_sample,8,2191,1522799983290.0,castIronPan,7,base
195,0,piano,1,4,scripted,correct,False,drop,0248-0ddbec25-7e2d-4464-9e98-1ebbc125c4df,3,1,4,planned_sample,8,4735,1522800009057.0,piano,7,base
196,0,magnet,2,4,scripted,correct,False,drop,0248-0ddbec25-7e2d-4464-9e98-1ebbc125c4df,0,2,4,planned_sample,7,2477,1522800022380.0,magnet,8,exp
197,0,handcuffs,4,3,scripted,correct,False,drop,0248-0ddbec25-7e2d-4464-9e98-1ebbc125c4df,1,4,3,planned_sample,7,2160,1522800045590.0,handcuffs,8,exp
198,0,pandaToy,3,2,scripted,correct,False,drop,0248-0ddbec25-7e2d-4464-9e98-1ebbc125c4df,2,3,2,planned_sample,7,1824,1522800066816.0,pandaToy,8,exp
199,1,smallCandle,1,4,scripted,incorrect,True,drop,0248-0ddbec25-7e2d-4464-9e98-1ebbc125c4df,2,1,2,planned_sample,7,5530,1522800082059.0,mediumCandle,8,exp
200,0,mediumCandle,1,2,scripted,correct,True,drop,0248-0ddbec25-7e2d-4464-9e98-1ebbc125c4df,3,1,2,planned_sample,7,5752,1522800105220.0,mediumCandle,8,exp
201,0,scissors,2,2,unscripted,correct,False,drop,0253-f251d8ba-98a1-42f6-bf50-459c2e0c70dd,0,2,2,planned_sample,3,6783,1522797837331.0,scissors,1,exp
202,0,knife,3,4,unscripted,correct,False,drop,0253-f251d8ba-98a1-42f6-bf50-459c2e0c70dd,1,3,4,planned_sample,3,2951,1522797853819.0,knife,1,exp
203,0,barOfSoap,3,3,unscripted,correct,False,drop,0253-f251d8ba-98a1-42f6-bf50-459c2e0c70dd,2,3,3,planned_sample,3,3839,1522797869581.0,barOfSoap,1,exp
204,0,cassetteTape,3,2,unscripted,correct,True,drop,0253-f251d8ba-98a1-42f6-bf50-459c2e0c70dd,3,3,2,planned_sample,3,3656,1522797888392.0,cassetteTape,1,exp
205,0,binoculars,2,4,unscripted,correct,False,drop,0253-f251d8ba-98a1-42f6-bf50-459c2e0c70dd,0,2,4,planned_sample,2,1807,1522797908316.0,binoculars,2,base
206,0,wrench,2,1,unscripted,correct,False,drop,0253-f251d8ba-98a1-42f6-bf50-459c2e0c70dd,1,2,1,planned_sample,2,3183,1522797926185.0,wrench,2,base
207,0,middleBlock,3,3,unscripted,correct,True,drop,0253-f251d8ba-98a1-42f6-bf50-459c2e0c70dd,2,3,3,planned_sample,2,2721,1522797944018.0,middleBlock,2,base
208,0,coffeeMug,2,2,unscripted,correct,False,drop,0253-f251d8ba-98a1-42f6-bf50-459c2e0c70dd,3,2,2,planned_sample,2,1816,1522797957446.0,coffeeMug,2,base
209,0,carrot,2,3,unscripted,correct,False,drop,0253-f251d8ba-98a1-42f6-bf50-459c2e0c70dd,0,2,3,planned_sample,4,2258,1522797971495.0,carrot,3,exp
210,0,mediumMeasuringCup,4,4,unscripted,correct,True,drop,0253-f251d8ba-98a1-42f6-bf50-459c2e0c70dd,1,4,4,planned_sample,4,4136,1522797990877.0,mediumMeasuringCup,3,exp
211,0,waterBottle,2,2,unscripted,correct,False,drop,0253-f251d8ba-98a1-42f6-bf50-459c2e0c70dd,2,2,2,planned_sample,4,2736,1522798006494.0,waterBottle,3,exp
212,0,chair,3,2,unscripted,correct,False,drop,0253-f251d8ba-98a1-42f6-bf50-459c2e0c70dd,3,3,2,planned_sample,4,1615,1522798017332.0,chair,3,exp
213,0,basketball,3,2,unscripted,correct,False,drop,0253-f251d8ba-98a1-42f6-bf50-459c2e0c70dd,0,3,2,planned_sample,5,1529,1522798030150.0,basketball,4,base
214,0,roundBrush,2,4,unscripted,correct,True,drop,0253-f251d8ba-98a1-42f6-bf50-459c2e0c70dd,1,2,4,planned_sample,5,2544,1522798047932.0,roundBrush,4,base
215,0,headphones,3,3,unscripted,correct,False,drop,0253-f251d8ba-98a1-42f6-bf50-459c2e0c70dd,2,3,3,planned_sample,5,1663,1522798066700.0,headphones,4,base
216,0,book,3,1,unscripted,correct,False,drop,0253-f251d8ba-98a1-42f6-bf50-459c2e0c70dd,3,3,1,planned_sample,5,1389,1522798079833.0,book,4,base
217,0,airplane,3,1,unscripted,correct,False,drop,0253-f251d8ba-98a1-42f6-bf50-459c2e0c70dd,0,3,1,planned_sample,1,2248,1522798094166.0,airplane,5,base
218,0,sunGlasses,4,4,unscripted,correct,True,drop,0253-f251d8ba-98a1-42f6-bf50-459c2e0c70dd,1,4,4,planned_sample,1,1625,1522798109866.0,sunGlasses,5,base
219,0,barrel,4,3,unscripted,correct,False,drop,0253-f251d8ba-98a1-42f6-bf50-459c2e0c70dd,2,4,3,planned_sample,1,1465,1522798125234.0,barrel,5,base
220,0,saxophone,2,3,unscripted,correct,False,drop,0253-f251d8ba-98a1-42f6-bf50-459c2e0c70dd,3,2,3,planned_sample,1,2839,1522798146301.0,saxophone,5,base
221,0,magnet,2,4,unscripted,correct,False,drop,0253-f251d8ba-98a1-42f6-bf50-459c2e0c70dd,0,2,4,planned_sample,7,1839,1522798161793.0,magnet,6,exp
222,0,handcuffs,4,3,unscripted,correct,False,drop,0253-f251d8ba-98a1-42f6-bf50-459c2e0c70dd,1,4,3,planned_sample,7,1960,1522798175706.0,handcuffs,6,exp
223,0,pandaToy,3,2,unscripted,correct,False,drop,0253-f251d8ba-98a1-42f6-bf50-459c2e0c70dd,2,3,2,planned_sample,7,2647,1522798190154.0,pandaToy,6,exp
224,0,mediumCandle,1,2,unscripted,correct,True,drop,0253-f251d8ba-98a1-42f6-bf50-459c2e0c70dd,3,1,2,planned_sample,7,2631,1522798203112.0,mediumCandle,6,exp
225,0,comb,1,1,unscripted,correct,False,drop,0253-f251d8ba-98a1-42f6-bf50-459c2e0c70dd,0,1,1,planned_sample,8,2488,1522798217088.0,comb,7,base
226,0,computerMouse,4,2,unscripted,correct,True,drop,0253-f251d8ba-98a1-42f6-bf50-459c2e0c70dd,1,4,2,planned_sample,8,1985,1522798230976.0,computerMouse,7,base
227,0,castIronPan,3,3,unscripted,correct,False,drop,0253-f251d8ba-98a1-42f6-bf50-459c2e0c70dd,2,3,3,planned_sample,8,2104,1522798246774.0,castIronPan,7,base
228,0,piano,1,4,unscripted,correct,False,drop,0253-f251d8ba-98a1-42f6-bf50-459c2e0c70dd,3,1,4,planned_sample,8,2584,1522798258855.0,piano,7,base
229,0,banana,4,2,unscripted,correct,False,drop,0253-f251d8ba-98a1-42f6-bf50-459c2e0c70dd,0,4,2,planned_sample,6,1871,1522798270838.0,banana,8,exp
230,0,dollar,4,3,unscripted,correct,False,drop,0253-f251d8ba-98a1-42f6-bf50-459c2e0c70dd,1,4,3,planned_sample,6,2073,1522798283671.0,dollar,8,exp
231,1,pencilEraser,1,2,unscripted,incorrect,True,drop,0253-f251d8ba-98a1-42f6-bf50-459c2e0c70dd,1,2,3,planned_sample,6,2392,1522798298653.0,boardEraser,8,exp
232,0,boardEraser,2,3,unscripted,correct,True,drop,0253-f251d8ba-98a1-42f6-bf50-459c2e0c70dd,2,2,3,planned_sample,6,2512,1522798314765.0,boardEraser,8,exp
233,0,feather,2,4,unscripted,correct,False,drop,0253-f251d8ba-98a1-42f6-bf50-459c2e0c70dd,3,2,4,planned_sample,6,4296,1522798334806.0,feather,8,exp
234,0,banana,4,2,unscripted,correct,False,drop,0439-894baa37-3fc0-4e4d-b2c1-2b700e1215ba,0,4,2,planned_sample,6,3799,1522823286029.0,banana,1,base
235,1,banana,4,3,unscripted,incorrect,False,drop,0439-894baa37-3fc0-4e4d-b2c1-2b700e1215ba,0,4,3,planned_sample,6,2064,1522823317229.0,dollar,1,base
236,0,dollar,4,3,unscripted,correct,False,drop,0439-894baa37-3fc0-4e4d-b2c1-2b700e1215ba,1,4,3,planned_sample,6,3447,1522823364335.0,dollar,1,base
237,1,dollar,4,1,unscripted,incorrect,True,drop,0439-894baa37-3fc0-4e4d-b2c1-2b700e1215ba,1,2,3,planned_sample,6,11750,1522823398230.0,boardEraser,1,base
238,0,boardEraser,2,3,unscripted,correct,True,drop,0439-894baa37-3fc0-4e4d-b2c1-2b700e1215ba,2,2,3,planned_sample,6,2001,1522823413693.0,boardEraser,1,base
239,0,feather,2,4,unscripted,correct,False,drop,0439-894baa37-3fc0-4e4d-b2c1-2b700e1215ba,3,2,4,planned_sample,6,3399,1522823431519.0,feather,1,base
240,0,magnet,2,4,unscripted,correct,False,drop,0439-894baa37-3fc0-4e4d-b2c1-2b700e1215ba,0,2,4,planned_sample,7,2072,1522823451846.0,magnet,2,exp
241,0,banana,4,2,scripted,correct,False,drop,0538-e2547271-2750-4461-ac40-4d5b18fd8344,0,4,2,planned_sample,6,3710,1522825360923.0,banana,1,base
242,0,dollar,4,3,scripted,correct,False,drop,0538-e2547271-2750-4461-ac40-4d5b18fd8344,1,4,3,planned_sample,6,3120,1522825395105.0,dollar,1,base
243,0,boardEraser,2,3,scripted,correct,True,drop,0538-e2547271-2750-4461-ac40-4d5b18fd8344,2,2,3,planned_sample,6,5500,1522825429273.0,boardEraser,1,base
244,0,feather,2,4,scripted,correct,False,drop,0538-e2547271-2750-4461-ac40-4d5b18fd8344,3,2,4,planned_sample,6,1497,1522825452431.0,feather,1,base
245,0,scissors,2,2,scripted,correct,False,drop,0538-e2547271-2750-4461-ac40-4d5b18fd8344,0,2,2,planned_sample,3,4585,1522825485964.0,scissors,2,exp
246,1,knife,3,5,scripted,incorrect,False,drop,0538-e2547271-2750-4461-ac40-4d5b18fd8344,0,3,4,planned_sample,3,1400,1522825501725.0,knife,2,exp
247,0,knife,3,4,scripted,correct,False,drop,0538-e2547271-2750-4461-ac40-4d5b18fd8344,1,3,4,planned_sample,3,3761,1522825549135.0,knife,2,exp
248,0,barOfSoap,3,3,scripted,correct,False,drop,0538-e2547271-2750-4461-ac40-4d5b18fd8344,2,3,3,planned_sample,3,4440,1522825578086.0,barOfSoap,2,exp
249,1,rollOfTape,4,2,scripted,incorrect,True,drop,0538-e2547271-2750-4461-ac40-4d5b18fd8344,2,3,2,planned_sample,3,3554,1522825597293.0,cassetteTape,2,exp
250,0,cassetteTape,3,2,scripted,correct,True,drop,0538-e2547271-2750-4461-ac40-4d5b18fd8344,3,3,2,planned_sample,3,6452,1522825640675.0,cassetteTape,2,exp
251,1,comb,1,0,scripted,incorrect,False,drop,0538-e2547271-2750-4461-ac40-4d5b18fd8344,-1,1,1,planned_sample,8,1740,1522825662865.0,comb,3,base
252,0,comb,1,1,scripted,correct,False,drop,0538-e2547271-2750-4461-ac40-4d5b18fd8344,0,1,1,planned_sample,8,2897,1522825687336.0,comb,3,base
253,0,computerMouse,4,2,scripted,correct,True,drop,0538-e2547271-2750-4461-ac40-4d5b18fd8344,1,4,2,planned_sample,8,4926,1522825705333.0,computerMouse,3,base
254,0,castIronPan,3,3,scripted,correct,False,drop,0538-e2547271-2750-4461-ac40-4d5b18fd8344,2,3,3,planned_sample,8,3368,1522825729345.0,castIronPan,3,base
255,0,piano,1,4,scripted,correct,False,drop,0538-e2547271-2750-4461-ac40-4d5b18fd8344,3,1,4,planned_sample,8,4913,1522825759724.0,piano,3,base
256,0,magnet,2,4,scripted,correct,False,drop,0538-e2547271-2750-4461-ac40-4d5b18fd8344,0,2,4,planned_sample,7,4623,1522825780915.0,magnet,4,base
257,0,handcuffs,4,3,scripted,correct,False,drop,0538-e2547271-2750-4461-ac40-4d5b18fd8344,1,4,3,planned_sample,7,4576,1522825815975.0,handcuffs,4,base
258,0,pandaToy,3,2,scripted,correct,False,drop,0538-e2547271-2750-4461-ac40-4d5b18fd8344,2,3,2,planned_sample,7,3424,1522825843425.0,pandaToy,4,base
259,0,mediumCandle,1,2,scripted,correct,True,drop,0538-e2547271-2750-4461-ac40-4d5b18fd8344,3,1,2,planned_sample,7,3960,1522825871645.0,mediumCandle,4,base
260,0,carrot,2,3,scripted,correct,False,drop,0538-e2547271-2750-4461-ac40-4d5b18fd8344,0,2,3,planned_sample,4,3000,1522825885515.0,carrot,5,exp
261,1,largeMeasuringCup,1,4,scripted,incorrect,True,drop,0538-e2547271-2750-4461-ac40-4d5b18fd8344,0,4,4,planned_sample,4,4424,1522825913945.0,mediumMeasuringCup,5,exp
262,2,largeMeasuringCup,1,4,scripted,incorrect,True,drop,0538-e2547271-2750-4461-ac40-4d5b18fd8344,0,4,4,planned_sample,4,6681,1522825947213.0,mediumMeasuringCup,5,exp
263,0,mediumMeasuringCup,4,4,scripted,correct,True,drop,0538-e2547271-2750-4461-ac40-4d5b18fd8344,1,4,4,planned_sample,4,3088,1522825987533.0,mediumMeasuringCup,5,exp
264,0,waterBottle,2,2,scripted,correct,False,drop,0538-e2547271-2750-4461-ac40-4d5b18fd8344,2,2,2,planned_sample,4,3441,1522826024884.0,waterBottle,5,exp
265,0,chair,3,2,scripted,correct,False,drop,0538-e2547271-2750-4461-ac40-4d5b18fd8344,3,3,2,planned_sample,4,6207,1522826076014.0,chair,5,exp
266,0,binoculars,2,4,scripted,correct,False,drop,0538-e2547271-2750-4461-ac40-4d5b18fd8344,0,2,4,planned_sample,2,2930,1522826092395.0,binoculars,6,base
267,1,wrench,3,2,scripted,incorrect,False,drop,0538-e2547271-2750-4461-ac40-4d5b18fd8344,0,2,1,planned_sample,2,4052,1522826135244.0,wrench,6,base
268,0,wrench,2,1,scripted,correct,False,drop,0538-e2547271-2750-4461-ac40-4d5b18fd8344,1,2,1,planned_sample,2,4247,1522826190165.0,wrench,6,base
269,1,binoculars,1,4,scripted,incorrect,True,drop,0538-e2547271-2750-4461-ac40-4d5b18fd8344,1,3,3,planned_sample,2,8947,1522826221015.0,middleBlock,6,base
270,0,middleBlock,3,3,scripted,correct,True,drop,0538-e2547271-2750-4461-ac40-4d5b18fd8344,2,3,3,planned_sample,2,7496,1522826256421.0,middleBlock,6,base
271,0,coffeeMug,2,2,scripted,correct,False,drop,0538-e2547271-2750-4461-ac40-4d5b18fd8344,3,2,2,planned_sample,2,3508,1522826287690.0,coffeeMug,6,base
272,0,basketball,3,2,scripted,correct,False,drop,0538-e2547271-2750-4461-ac40-4d5b18fd8344,0,3,2,planned_sample,5,4458,1522826321684.0,basketball,7,exp
273,1,hairBrush,3,1,scripted,incorrect,True,drop,0538-e2547271-2750-4461-ac40-4d5b18fd8344,0,2,4,planned_sample,5,4136,1522826374046.0,roundBrush,7,exp
274,0,roundBrush,2,4,scripted,correct,True,drop,0538-e2547271-2750-4461-ac40-4d5b18fd8344,1,2,4,planned_sample,5,2912,1522826413154.0,roundBrush,7,exp
275,0,headphones,3,3,scripted,correct,False,drop,0538-e2547271-2750-4461-ac40-4d5b18fd8344,2,3,3,planned_sample,5,3862,1522826450755.0,headphones,7,exp
276,0,book,3,1,scripted,correct,False,drop,0538-e2547271-2750-4461-ac40-4d5b18fd8344,3,3,1,planned_sample,5,6267,1522826505505.0,book,7,exp
277,0,basketball,3,2,scripted,correct,False,drop,0562-c375f066-1433-4cac-82fe-ce796f9747c9,0,3,2,planned_sample,5,5626,1522804059153.0,basketball,1,exp
278,1,hairBrush,3,1,scripted,incorrect,True,drop,0562-c375f066-1433-4cac-82fe-ce796f9747c9,0,2,4,planned_sample,5,2808,1522804075607.0,roundBrush,1,exp
279,0,roundBrush,2,4,scripted,correct,True,drop,0562-c375f066-1433-4cac-82fe-ce796f9747c9,1,2,4,planned_sample,5,5288,1522804119667.0,roundBrush,1,exp
280,0,headphones,3,3,scripted,correct,False,drop,0562-c375f066-1433-4cac-82fe-ce796f9747c9,2,3,3,planned_sample,5,2977,1522804144156.0,headphones,1,exp
281,0,book,3,1,scripted,correct,False,drop,0562-c375f066-1433-4cac-82fe-ce796f9747c9,3,3,1,planned_sample,5,1785,1522804159316.0,book,1,exp
282,0,scissors,2,2,scripted,correct,False,drop,0562-c375f066-1433-4cac-82fe-ce796f9747c9,0,2,2,planned_sample,3,1757,1522804181468.0,scissors,2,base
283,0,knife,3,4,scripted,correct,False,drop,0562-c375f066-1433-4cac-82fe-ce796f9747c9,1,3,4,planned_sample,3,1746,1522804198830.0,knife,2,base
284,0,barOfSoap,3,3,scripted,correct,False,drop,0562-c375f066-1433-4cac-82fe-ce796f9747c9,2,3,3,planned_sample,3,2941,1522804232007.0,barOfSoap,2,base
285,0,cassetteTape,3,2,scripted,correct,True,drop,0562-c375f066-1433-4cac-82fe-ce796f9747c9,3,3,2,planned_sample,3,3110,1522804247602.0,cassetteTape,2,base
286,0,binoculars,2,4,scripted,correct,False,drop,0562-c375f066-1433-4cac-82fe-ce796f9747c9,0,2,4,planned_sample,2,1921,1522804262898.0,binoculars,3,exp
287,0,wrench,2,1,scripted,correct,False,drop,0562-c375f066-1433-4cac-82fe-ce796f9747c9,1,2,1,planned_sample,2,3495,1522804288333.0,wrench,3,exp
288,0,middleBlock,3,3,scripted,correct,True,drop,0562-c375f066-1433-4cac-82fe-ce796f9747c9,2,3,3,planned_sample,2,7522,1522804314829.0,middleBlock,3,exp
289,0,coffeeMug,2,2,scripted,correct,False,drop,0562-c375f066-1433-4cac-82fe-ce796f9747c9,3,2,2,planned_sample,2,2917,1522804342466.0,coffeeMug,3,exp
290,0,magnet,2,4,scripted,correct,False,drop,0562-c375f066-1433-4cac-82fe-ce796f9747c9,0,2,4,planned_sample,7,1350,1522804353095.0,magnet,4,exp
291,0,handcuffs,4,3,scripted,correct,False,drop,0562-c375f066-1433-4cac-82fe-ce796f9747c9,1,4,3,planned_sample,7,2519,1522804394216.0,handcuffs,4,exp
292,0,pandaToy,3,2,scripted,correct,False,drop,0562-c375f066-1433-4cac-82fe-ce796f9747c9,2,3,2,planned_sample,7,2182,1522804413433.0,pandaToy,4,exp
293,0,mediumCandle,1,2,scripted,correct,True,drop,0562-c375f066-1433-4cac-82fe-ce796f9747c9,3,1,2,planned_sample,7,5085,1522804434441.0,mediumCandle,4,exp
294,0,carrot,2,3,scripted,correct,False,drop,0562-c375f066-1433-4cac-82fe-ce796f9747c9,0,2,3,planned_sample,4,1725,1522804450144.0,carrot,5,base
295,0,mediumMeasuringCup,4,4,scripted,correct,True,drop,0562-c375f066-1433-4cac-82fe-ce796f9747c9,1,4,4,planned_sample,4,3568,1522804466745.0,mediumMeasuringCup,5,base
296,0,waterBottle,2,2,scripted,correct,False,drop,0562-c375f066-1433-4cac-82fe-ce796f9747c9,2,2,2,planned_sample,4,4773,1522804494800.0,waterBottle,5,base
297,0,chair,3,2,scripted,correct,False,drop,0562-c375f066-1433-4cac-82fe-ce796f9747c9,3,3,2,planned_sample,4,4930,1522804525957.0,chair,5,base
298,0,airplane,3,1,scripted,correct,False,drop,0562-c375f066-1433-4cac-82fe-ce796f9747c9,0,3,1,planned_sample,1,3604,1522804559009.0,airplane,6,base
299,0,sunGlasses,4,4,scripted,correct,True,drop,0562-c375f066-1433-4cac-82fe-ce796f9747c9,1,4,4,planned_sample,1,4554,1522804574442.0,sunGlasses,6,base
300,0,barrel,4,3,scripted,correct,False,drop,0562-c375f066-1433-4cac-82fe-ce796f9747c9,2,4,3,planned_sample,1,4960,1522804594177.0,barrel,6,base
301,0,saxophone,2,3,scripted,correct,False,drop,0562-c375f066-1433-4cac-82fe-ce796f9747c9,3,2,3,planned_sample,1,2314,1522804642065.0,saxophone,6,base
302,0,banana,4,2,scripted,correct,False,drop,0562-c375f066-1433-4cac-82fe-ce796f9747c9,0,4,2,planned_sample,6,2062,1522804653045.0,banana,7,exp
303,0,dollar,4,3,scripted,correct,False,drop,0562-c375f066-1433-4cac-82fe-ce796f9747c9,1,4,3,planned_sample,6,2882,1522804693625.0,dollar,7,exp
304,0,boardEraser,2,3,scripted,correct,True,drop,0562-c375f066-1433-4cac-82fe-ce796f9747c9,2,2,3,planned_sample,6,6531,1522804712480.0,boardEraser,7,exp
305,0,feather,2,4,scripted,correct,False,drop,0562-c375f066-1433-4cac-82fe-ce796f9747c9,3,2,4,planned_sample,6,2502,1522804733757.0,feather,7,exp
306,0,comb,1,1,scripted,correct,False,drop,0562-c375f066-1433-4cac-82fe-ce796f9747c9,0,1,1,planned_sample,8,3724,1522804755149.0,comb,8,base
307,0,computerMouse,4,2,scripted,correct,True,drop,0562-c375f066-1433-4cac-82fe-ce796f9747c9,1,4,2,planned_sample,8,2844,1522804767069.0,computerMouse,8,base
308,0,castIronPan,3,3,scripted,correct,False,drop,0562-c375f066-1433-4cac-82fe-ce796f9747c9,2,3,3,planned_sample,8,2016,1522804801605.0,castIronPan,8,base
309,0,piano,1,4,scripted,correct,False,drop,0562-c375f066-1433-4cac-82fe-ce796f9747c9,3,1,4,planned_sample,8,1696,1522804830339.0,piano,8,base
310,0,magnet,2,4,scripted,correct,False,drop,0621-d4706677-e888-487c-ab9d-3770f3986f4b,0,2,4,planned_sample,7,2671,1522822248024.0,magnet,1,base
311,0,handcuffs,4,3,scripted,correct,False,drop,0621-d4706677-e888-487c-ab9d-3770f3986f4b,1,4,3,planned_sample,7,1678,1522822275443.0,handcuffs,1,base
312,0,pandaToy,3,2,scripted,correct,False,drop,0621-d4706677-e888-487c-ab9d-3770f3986f4b,2,3,2,planned_sample,7,1509,1522822303081.0,pandaToy,1,base
313,0,mediumCandle,1,2,scripted,correct,True,drop,0621-d4706677-e888-487c-ab9d-3770f3986f4b,3,1,2,planned_sample,7,4223,1522822331051.0,mediumCandle,1,base
314,0,scissors,2,2,scripted,correct,False,drop,0621-d4706677-e888-487c-ab9d-3770f3986f4b,0,2,2,planned_sample,3,2420,1522822362006.0,scissors,2,exp
315,0,knife,3,4,scripted,correct,False,drop,0621-d4706677-e888-487c-ab9d-3770f3986f4b,1,3,4,planned_sample,3,1405,1522822376814.0,knife,2,exp
316,0,barOfSoap,3,3,scripted,correct,False,drop,0621-d4706677-e888-487c-ab9d-3770f3986f4b,2,3,3,planned_sample,3,4620,1522822408706.0,barOfSoap,2,exp
317,0,cassetteTape,3,2,scripted,correct,True,drop,0621-d4706677-e888-487c-ab9d-3770f3986f4b,3,3,2,planned_sample,3,36060,1522822457332.0,cassetteTape,2,exp
318,0,carrot,2,3,scripted,correct,False,drop,0621-d4706677-e888-487c-ab9d-3770f3986f4b,0,2,3,planned_sample,4,1754,1522822483943.0,carrot,3,base
319,0,mediumMeasuringCup,4,4,scripted,correct,True,drop,0621-d4706677-e888-487c-ab9d-3770f3986f4b,1,4,4,planned_sample,4,3312,1522822506611.0,mediumMeasuringCup,3,base
320,0,waterBottle,2,2,scripted,correct,False,drop,0621-d4706677-e888-487c-ab9d-3770f3986f4b,2,2,2,planned_sample,4,1875,1522822534513.0,waterBottle,3,base
321,0,chair,3,2,scripted,correct,False,drop,0621-d4706677-e888-487c-ab9d-3770f3986f4b,3,3,2,planned_sample,4,2687,1522822553708.0,chair,3,base
322,0,basketball,3,2,scripted,correct,False,drop,0621-d4706677-e888-487c-ab9d-3770f3986f4b,0,3,2,planned_sample,5,1557,1522822586243.0,basketball,4,exp
323,0,roundBrush,2,4,scripted,correct,True,drop,0621-d4706677-e888-487c-ab9d-3770f3986f4b,1,2,4,planned_sample,5,1189,1522822604109.0,roundBrush,4,exp
324,0,headphones,3,3,scripted,correct,False,drop,0621-d4706677-e888-487c-ab9d-3770f3986f4b,2,3,3,planned_sample,5,1709,1522822628056.0,headphones,4,exp
325,0,book,3,1,scripted,correct,False,drop,0621-d4706677-e888-487c-ab9d-3770f3986f4b,3,3,1,planned_sample,5,2807,1522822641423.0,book,4,exp
326,0,binoculars,2,4,scripted,correct,False,drop,0621-d4706677-e888-487c-ab9d-3770f3986f4b,0,2,4,planned_sample,2,3372,1522822671990.0,binoculars,5,base
327,0,wrench,2,1,scripted,correct,False,drop,0621-d4706677-e888-487c-ab9d-3770f3986f4b,1,2,1,planned_sample,2,2542,1522822707823.0,wrench,5,base
328,0,middleBlock,3,3,scripted,correct,True,drop,0621-d4706677-e888-487c-ab9d-3770f3986f4b,2,3,3,planned_sample,2,3043,1522822726069.0,middleBlock,5,base
329,0,coffeeMug,2,2,scripted,correct,False,drop,0621-d4706677-e888-487c-ab9d-3770f3986f4b,3,2,2,planned_sample,2,1813,1522822757376.0,coffeeMug,5,base
330,0,banana,4,2,scripted,correct,False,drop,0621-d4706677-e888-487c-ab9d-3770f3986f4b,0,4,2,planned_sample,6,2234,1522822774100.0,banana,6,exp
331,0,dollar,4,3,scripted,correct,False,drop,0621-d4706677-e888-487c-ab9d-3770f3986f4b,1,4,3,planned_sample,6,1263,1522822794487.0,dollar,6,exp
332,0,boardEraser,2,3,scripted,correct,True,drop,0621-d4706677-e888-487c-ab9d-3770f3986f4b,2,2,3,planned_sample,6,37949,1522822847099.0,boardEraser,6,exp
333,1,tennisBall,2,2,scripted,incorrect,False,drop,0621-d4706677-e888-487c-ab9d-3770f3986f4b,2,2,4,planned_sample,6,17045,1522822929412.0,feather,6,exp
334,0,feather,2,4,scripted,correct,False,drop,0621-d4706677-e888-487c-ab9d-3770f3986f4b,3,2,4,planned_sample,6,13094,1522822984973.0,feather,6,exp
335,0,comb,1,1,scripted,correct,False,drop,0621-d4706677-e888-487c-ab9d-3770f3986f4b,0,1,1,planned_sample,8,2111,1522823016657.0,comb,7,base
336,0,computerMouse,4,2,scripted,correct,True,drop,0621-d4706677-e888-487c-ab9d-3770f3986f4b,1,4,2,planned_sample,8,1790,1522823034462.0,computerMouse,7,base
337,0,castIronPan,3,3,scripted,correct,False,drop,0621-d4706677-e888-487c-ab9d-3770f3986f4b,2,3,3,planned_sample,8,1790,1522823061739.0,castIronPan,7,base
338,0,piano,1,4,scripted,correct,False,drop,0621-d4706677-e888-487c-ab9d-3770f3986f4b,3,1,4,planned_sample,8,22356,1522823125505.0,piano,7,base
339,0,airplane,3,1,scripted,correct,False,drop,0621-d4706677-e888-487c-ab9d-3770f3986f4b,0,3,1,planned_sample,1,1870,1522823164368.0,airplane,8,exp
340,0,sunGlasses,4,4,scripted,correct,True,drop,0621-d4706677-e888-487c-ab9d-3770f3986f4b,1,4,4,planned_sample,1,3913,1522823182085.0,sunGlasses,8,exp
341,0,barrel,4,3,scripted,correct,False,drop,0621-d4706677-e888-487c-ab9d-3770f3986f4b,2,4,3,planned_sample,1,1943,1522823198873.0,barrel,8,exp
342,0,saxophone,2,3,scripted,correct,False,drop,0621-d4706677-e888-487c-ab9d-3770f3986f4b,3,2,3,planned_sample,1,1826,1522823220877.0,saxophone,8,exp
343,0,binoculars,2,4,scripted,correct,False,drop,0640-8634fa92-8347-460a-bcfc-40a75abaa78e,0,2,4,planned_sample,2,7827,1522815064136.0,binoculars,1,base
344,1,middleBlock,3,3,scripted,incorrect,False,drop,0640-8634fa92-8347-460a-bcfc-40a75abaa78e,0,2,1,planned_sample,2,20722,1522815103977.0,wrench,1,base
345,0,wrench,2,1,scripted,correct,False,drop,0640-8634fa92-8347-460a-bcfc-40a75abaa78e,1,2,1,planned_sample,2,8453,1522815135539.0,wrench,1,base
346,1,stapler,3,4,scripted,incorrect,True,drop,0640-8634fa92-8347-460a-bcfc-40a75abaa78e,1,3,3,planned_sample,2,26982,1522815193364.0,middleBlock,1,base
347,2,topBlock,2,1,scripted,incorrect,True,drop,0640-8634fa92-8347-460a-bcfc-40a75abaa78e,1,3,3,planned_sample,2,12380,1522815254029.0,middleBlock,1,base
348,0,middleBlock,3,3,scripted,correct,True,drop,0640-8634fa92-8347-460a-bcfc-40a75abaa78e,2,3,3,planned_sample,2,6337,1522815296827.0,middleBlock,1,base
349,0,coffeeMug,2,2,scripted,correct,False,drop,0640-8634fa92-8347-460a-bcfc-40a75abaa78e,3,2,2,planned_sample,2,7884,1522815465419.0,coffeeMug,1,base
350,0,scissors,2,2,scripted,correct,False,drop,0640-8634fa92-8347-460a-bcfc-40a75abaa78e,0,2,2,planned_sample,3,3925,1522815508503.0,scissors,2,exp
351,0,knife,3,4,scripted,correct,False,drop,0640-8634fa92-8347-460a-bcfc-40a75abaa78e,1,3,4,planned_sample,3,5380,1522815539362.0,knife,2,exp
352,0,barOfSoap,3,3,scripted,correct,False,drop,0640-8634fa92-8347-460a-bcfc-40a75abaa78e,2,3,3,planned_sample,3,4311,1522815590538.0,barOfSoap,2,exp
353,1,rollOfTape,4,2,scripted,incorrect,True,drop,0640-8634fa92-8347-460a-bcfc-40a75abaa78e,2,3,2,planned_sample,3,4769,1522815612256.0,cassetteTape,2,exp
354,2,barOfSoap,3,4,scripted,incorrect,True,drop,0640-8634fa92-8347-460a-bcfc-40a75abaa78e,2,3,2,planned_sample,3,5527,1522815644184.0,cassetteTape,2,exp
355,3,rollOfTape,4,2,scripted,incorrect,True,drop,0640-8634fa92-8347-460a-bcfc-40a75abaa78e,2,3,2,planned_sample,3,3475,1522815683208.0,cassetteTape,2,exp
356,0,cassetteTape,3,2,scripted,correct,True,drop,0640-8634fa92-8347-460a-bcfc-40a75abaa78e,3,3,2,planned_sample,3,21337,1522815725637.0,cassetteTape,2,exp
357,0,magnet,2,4,scripted,correct,False,drop,0640-8634fa92-8347-460a-bcfc-40a75abaa78e,0,2,4,planned_sample,7,4054,1522815748818.0,magnet,3,base
358,0,handcuffs,4,3,scripted,correct,False,drop,0640-8634fa92-8347-460a-bcfc-40a75abaa78e,1,4,3,planned_sample,7,3459,1522815783867.0,handcuffs,3,base
359,0,pandaToy,3,2,scripted,correct,False,drop,0640-8634fa92-8347-460a-bcfc-40a75abaa78e,2,3,2,planned_sample,7,3129,1522815835636.0,pandaToy,3,base
360,0,mediumCandle,1,2,scripted,correct,True,drop,0640-8634fa92-8347-460a-bcfc-40a75abaa78e,3,1,2,planned_sample,7,4171,1522815868088.0,mediumCandle,3,base
361,0,comb,1,1,scripted,correct,False,drop,0640-8634fa92-8347-460a-bcfc-40a75abaa78e,0,1,1,planned_sample,8,3383,1522815895572.0,comb,4,base
362,0,computerMouse,4,2,scripted,correct,True,drop,0640-8634fa92-8347-460a-bcfc-40a75abaa78e,1,4,2,planned_sample,8,3508,1522815908532.0,computerMouse,4,base
363,0,castIronPan,3,3,scripted,correct,False,drop,0640-8634fa92-8347-460a-bcfc-40a75abaa78e,2,3,3,planned_sample,8,2732,1522815926949.0,castIronPan,4,base
364,0,piano,1,4,scripted,correct,False,drop,0640-8634fa92-8347-460a-bcfc-40a75abaa78e,3,1,4,planned_sample,8,6926,1522815949885.0,piano,4,base
365,0,carrot,2,3,scripted,correct,False,drop,0640-8634fa92-8347-460a-bcfc-40a75abaa78e,0,2,3,planned_sample,4,3375,1522815963942.0,carrot,5,exp
366,1,largeMeasuringCup,1,4,scripted,incorrect,True,drop,0640-8634fa92-8347-460a-bcfc-40a75abaa78e,0,4,4,planned_sample,4,5544,1522815981446.0,mediumMeasuringCup,5,exp
367,0,mediumMeasuringCup,4,4,scripted,correct,True,drop,0640-8634fa92-8347-460a-bcfc-40a75abaa78e,1,4,4,planned_sample,4,2096,1522816000655.0,mediumMeasuringCup,5,exp
368,0,waterBottle,2,2,scripted,correct,False,drop,0640-8634fa92-8347-460a-bcfc-40a75abaa78e,2,2,2,planned_sample,4,5695,1522816015755.0,waterBottle,5,exp
369,0,chair,3,2,scripted,correct,False,drop,0640-8634fa92-8347-460a-bcfc-40a75abaa78e,3,3,2,planned_sample,4,2959,1522816031047.0,chair,5,exp
370,0,basketball,3,2,scripted,correct,False,drop,0640-8634fa92-8347-460a-bcfc-40a75abaa78e,0,3,2,planned_sample,5,3876,1522816045242.0,basketball,6,base
371,0,roundBrush,2,4,scripted,correct,True,drop,0640-8634fa92-8347-460a-bcfc-40a75abaa78e,1,2,4,planned_sample,5,7865,1522816065788.0,roundBrush,6,base
372,0,headphones,3,3,scripted,correct,False,drop,0640-8634fa92-8347-460a-bcfc-40a75abaa78e,2,3,3,planned_sample,5,3018,1522816083477.0,headphones,6,base
373,0,book,3,1,scripted,correct,False,drop,0640-8634fa92-8347-460a-bcfc-40a75abaa78e,3,3,1,planned_sample,5,5833,1522816116013.0,book,6,base
374,0,airplane,3,1,scripted,correct,False,drop,0640-8634fa92-8347-460a-bcfc-40a75abaa78e,0,3,1,planned_sample,1,5348,1522816145620.0,airplane,7,exp
375,0,sunGlasses,4,4,scripted,correct,True,drop,0640-8634fa92-8347-460a-bcfc-40a75abaa78e,1,4,4,planned_sample,1,9816,1522816179152.0,sunGlasses,7,exp
376,0,barrel,4,3,scripted,correct,False,drop,0640-8634fa92-8347-460a-bcfc-40a75abaa78e,2,4,3,planned_sample,1,3174,1522816193421.0,barrel,7,exp
377,0,saxophone,2,3,scripted,correct,False,drop,0640-8634fa92-8347-460a-bcfc-40a75abaa78e,3,2,3,planned_sample,1,3800,1522816208835.0,saxophone,7,exp
378,0,banana,4,2,scripted,correct,False,drop,0640-8634fa92-8347-460a-bcfc-40a75abaa78e,0,4,2,planned_sample,6,1793,1522816222036.0,banana,8,exp
379,0,dollar,4,3,scripted,correct,False,drop,0640-8634fa92-8347-460a-bcfc-40a75abaa78e,1,4,3,planned_sample,6,2850,1522816237409.0,dollar,8,exp
380,0,boardEraser,2,3,scripted,correct,True,drop,0640-8634fa92-8347-460a-bcfc-40a75abaa78e,2,2,3,planned_sample,6,5441,1522816257994.0,boardEraser,8,exp
381,0,magnet,2,4,scripted,correct,False,drop,0703-105364fd-093f-4581-8bb3-367580400bf4,0,2,4,planned_sample,7,3008,1522821043060.0,magnet,1,base
382,0,handcuffs,4,3,scripted,correct,False,drop,0703-105364fd-093f-4581-8bb3-367580400bf4,1,4,3,planned_sample,7,1695,1522821072843.0,handcuffs,1,base
383,0,pandaToy,3,2,scripted,correct,False,drop,0703-105364fd-093f-4581-8bb3-367580400bf4,2,3,2,planned_sample,7,3033,1522821100079.0,pandaToy,1,base
384,0,mediumCandle,1,2,scripted,correct,True,drop,0703-105364fd-093f-4581-8bb3-367580400bf4,3,1,2,planned_sample,7,9416,1522821124692.0,mediumCandle,1,base
385,0,comb,1,1,scripted,correct,False,drop,0703-105364fd-093f-4581-8bb3-367580400bf4,0,1,1,planned_sample,8,1866,1522821149492.0,comb,2,exp
386,0,computerMouse,4,2,scripted,correct,True,drop,0703-105364fd-093f-4581-8bb3-367580400bf4,1,4,2,planned_sample,8,1289,1522821164544.0,computerMouse,2,exp
387,0,castIronPan,3,3,scripted,correct,False,drop,0703-105364fd-093f-4581-8bb3-367580400bf4,2,3,3,planned_sample,8,1497,1522821208551.0,castIronPan,2,exp
388,0,piano,1,4,scripted,correct,False,drop,0703-105364fd-093f-4581-8bb3-367580400bf4,3,1,4,planned_sample,8,4630,1522821246205.0,piano,2,exp
389,0,basketball,3,2,scripted,correct,False,drop,0703-105364fd-093f-4581-8bb3-367580400bf4,0,3,2,planned_sample,5,1464,1522821262292.0,basketball,3,base
390,0,roundBrush,2,4,scripted,correct,True,drop,0703-105364fd-093f-4581-8bb3-367580400bf4,1,2,4,planned_sample,5,12548,1522821287129.0,roundBrush,3,base
391,0,headphones,3,3,scripted,correct,False,drop,0703-105364fd-093f-4581-8bb3-367580400bf4,2,3,3,planned_sample,5,2497,1522821311343.0,headphones,3,base
392,0,book,3,1,scripted,correct,False,drop,0703-105364fd-093f-4581-8bb3-367580400bf4,3,3,1,planned_sample,5,2290,1522821333036.0,book,3,base
393,0,airplane,3,1,scripted,correct,False,drop,0703-105364fd-093f-4581-8bb3-367580400bf4,0,3,1,planned_sample,1,2773,1522821356231.0,airplane,4,exp
394,0,sunGlasses,4,4,scripted,correct,True,drop,0703-105364fd-093f-4581-8bb3-367580400bf4,1,4,4,planned_sample,1,2464,1522821367597.0,sunGlasses,4,exp
395,0,barrel,4,3,scripted,correct,False,drop,0703-105364fd-093f-4581-8bb3-367580400bf4,2,4,3,planned_sample,1,1696,1522821386813.0,barrel,4,exp
396,0,saxophone,2,3,scripted,correct,False,drop,0703-105364fd-093f-4581-8bb3-367580400bf4,3,2,3,planned_sample,1,2405,1522821405647.0,saxophone,4,exp
397,0,carrot,2,3,scripted,correct,False,drop,0703-105364fd-093f-4581-8bb3-367580400bf4,0,2,3,planned_sample,4,1254,1522821415620.0,carrot,5,base
398,0,mediumMeasuringCup,4,4,scripted,correct,True,drop,0703-105364fd-093f-4581-8bb3-367580400bf4,1,4,4,planned_sample,4,1312,1522821424880.0,mediumMeasuringCup,5,base
399,0,waterBottle,2,2,scripted,correct,False,drop,0703-105364fd-093f-4581-8bb3-367580400bf4,2,2,2,planned_sample,4,2202,1522821459993.0,waterBottle,5,base
400,0,chair,3,2,scripted,correct,False,drop,0703-105364fd-093f-4581-8bb3-367580400bf4,3,3,2,planned_sample,4,1407,1522821478637.0,chair,5,base
401,0,scissors,2,2,scripted,correct,False,drop,0703-105364fd-093f-4581-8bb3-367580400bf4,0,2,2,planned_sample,3,1770,1522821496287.0,scissors,6,exp
402,0,knife,3,4,scripted,correct,False,drop,0703-105364fd-093f-4581-8bb3-367580400bf4,1,3,4,planned_sample,3,1492,1522821505360.0,knife,6,exp
403,0,barOfSoap,3,3,scripted,correct,False,drop,0703-105364fd-093f-4581-8bb3-367580400bf4,2,3,3,planned_sample,3,1794,1522821522104.0,barOfSoap,6,exp
404,1,rollOfTape,4,2,scripted,incorrect,True,drop,0703-105364fd-093f-4581-8bb3-367580400bf4,2,3,2,planned_sample,3,8793,1522821538200.0,cassetteTape,6,exp
405,0,cassetteTape,3,2,scripted,correct,True,drop,0703-105364fd-093f-4581-8bb3-367580400bf4,3,3,2,planned_sample,3,2271,1522821568407.0,cassetteTape,6,exp
406,0,binoculars,2,4,scripted,correct,False,drop,0703-105364fd-093f-4581-8bb3-367580400bf4,0,2,4,planned_sample,2,3424,1522821580630.0,binoculars,7,base
407,1,wrench,4,1,scripted,incorrect,False,drop,0703-105364fd-093f-4581-8bb3-367580400bf4,0,2,1,planned_sample,2,2756,1522821596577.0,wrench,7,base
408,0,wrench,2,1,scripted,correct,False,drop,0703-105364fd-093f-4581-8bb3-367580400bf4,1,2,1,planned_sample,2,1981,1522821619911.0,wrench,7,base
409,0,middleBlock,3,3,scripted,correct,True,drop,0703-105364fd-093f-4581-8bb3-367580400bf4,2,3,3,planned_sample,2,1733,1522821630053.0,middleBlock,7,base
410,0,coffeeMug,2,2,scripted,correct,False,drop,0703-105364fd-093f-4581-8bb3-367580400bf4,3,2,2,planned_sample,2,3512,1522821648847.0,coffeeMug,7,base
411,0,banana,4,2,scripted,correct,False,drop,0703-105364fd-093f-4581-8bb3-367580400bf4,0,4,2,planned_sample,6,1063,1522821658047.0,banana,8,exp
412,0,dollar,4,3,scripted,correct,False,drop,0703-105364fd-093f-4581-8bb3-367580400bf4,1,4,3,planned_sample,6,2960,1522821680662.0,dollar,8,exp
413,1,pencilEraser,1,2,scripted,incorrect,True,drop,0703-105364fd-093f-4581-8bb3-367580400bf4,1,2,3,planned_sample,6,1694,1522821690297.0,boardEraser,8,exp
414,0,boardEraser,2,3,scripted,correct,True,drop,0703-105364fd-093f-4581-8bb3-367580400bf4,2,2,3,planned_sample,6,3976,1522821708260.0,boardEraser,8,exp
415,0,feather,2,4,scripted,correct,False,drop,0703-105364fd-093f-4581-8bb3-367580400bf4,3,2,4,planned_sample,6,1911,1522821726270.0,feather,8,exp
416,0,comb,1,1,scripted,correct,False,drop,0715-06250ca0-7a76-4415-8f41-b39fa652d804,0,1,1,planned_sample,8,4028,1522824137297.0,comb,1,exp
417,0,computerMouse,4,2,scripted,correct,True,drop,0715-06250ca0-7a76-4415-8f41-b39fa652d804,1,4,2,planned_sample,8,37978,1522824186724.0,computerMouse,1,exp
418,0,castIronPan,3,3,scripted,correct,False,drop,0715-06250ca0-7a76-4415-8f41-b39fa652d804,2,3,3,planned_sample,8,2063,1522824206998.0,castIronPan,1,exp
419,0,piano,1,4,scripted,correct,False,drop,0715-06250ca0-7a76-4415-8f41-b39fa652d804,3,1,4,planned_sample,8,2601,1522824249540.0,piano,1,exp
420,0,basketball,3,2,scripted,correct,False,drop,0715-06250ca0-7a76-4415-8f41-b39fa652d804,0,3,2,planned_sample,5,8440,1522824281947.0,basketball,2,base
421,0,roundBrush,2,4,scripted,correct,True,drop,0715-06250ca0-7a76-4415-8f41-b39fa652d804,1,2,4,planned_sample,5,38317,1522824335006.0,roundBrush,2,base
422,1,headphones,1,3,scripted,incorrect,False,drop,0715-06250ca0-7a76-4415-8f41-b39fa652d804,1,3,3,planned_sample,5,17195,1522824388952.0,headphones,2,base
423,0,headphones,3,3,scripted,correct,False,drop,0715-06250ca0-7a76-4415-8f41-b39fa652d804,2,3,3,planned_sample,5,1697,1522824420664.0,headphones,2,base
424,0,book,3,1,scripted,correct,False,drop,0715-06250ca0-7a76-4415-8f41-b39fa652d804,3,3,1,planned_sample,5,2151,1522824433718.0,book,2,base
425,0,carrot,2,3,scripted,correct,False,drop,0715-06250ca0-7a76-4415-8f41-b39fa652d804,0,2,3,planned_sample,4,1776,1522824444338.0,carrot,3,base
426,1,smallMeasuringCup,3,2,scripted,incorrect,True,drop,0715-06250ca0-7a76-4415-8f41-b39fa652d804,0,4,4,planned_sample,4,2776,1522824454150.0,mediumMeasuringCup,3,base
427,0,mediumMeasuringCup,4,4,scripted,correct,True,drop,0715-06250ca0-7a76-4415-8f41-b39fa652d804,1,4,4,planned_sample,4,2454,1522824483946.0,mediumMeasuringCup,3,base
428,0,waterBottle,2,2,scripted,correct,False,drop,0715-06250ca0-7a76-4415-8f41-b39fa652d804,2,2,2,planned_sample,4,3565,1522824512511.0,waterBottle,3,base
429,0,chair,3,2,scripted,correct,False,drop,0715-06250ca0-7a76-4415-8f41-b39fa652d804,3,3,2,planned_sample,4,3126,1522824550269.0,chair,3,base
430,0,binoculars,2,4,scripted,correct,False,drop,0715-06250ca0-7a76-4415-8f41-b39fa652d804,0,2,4,planned_sample,2,18266,1522824577780.0,binoculars,4,exp
431,0,wrench,2,1,scripted,correct,False,drop,0715-06250ca0-7a76-4415-8f41-b39fa652d804,1,2,1,planned_sample,2,4322,1522824614411.0,wrench,4,exp
432,1,bottomBlock,3,4,scripted,incorrect,True,drop,0715-06250ca0-7a76-4415-8f41-b39fa652d804,1,3,3,planned_sample,2,3312,1522824625242.0,middleBlock,4,exp
433,0,middleBlock,3,3,scripted,correct,True,drop,0715-06250ca0-7a76-4415-8f41-b39fa652d804,2,3,3,planned_sample,2,2836,1522824681646.0,middleBlock,4,exp
434,0,coffeeMug,2,2,scripted,correct,False,drop,0715-06250ca0-7a76-4415-8f41-b39fa652d804,3,2,2,planned_sample,2,3119,1522824711512.0,coffeeMug,4,exp
435,0,scissors,2,2,scripted,correct,False,drop,0715-06250ca0-7a76-4415-8f41-b39fa652d804,0,2,2,planned_sample,3,2444,1522824747295.0,scissors,5,base
436,0,knife,3,4,scripted,correct,False,drop,0715-06250ca0-7a76-4415-8f41-b39fa652d804,1,3,4,planned_sample,3,1783,1522824758521.0,knife,5,base
437,0,barOfSoap,3,3,scripted,correct,False,drop,0715-06250ca0-7a76-4415-8f41-b39fa652d804,2,3,3,planned_sample,3,3945,1522824793220.0,barOfSoap,5,base
438,0,cassetteTape,3,2,scripted,correct,True,drop,0715-06250ca0-7a76-4415-8f41-b39fa652d804,3,3,2,planned_sample,3,2498,1522824803087.0,cassetteTape,5,base
439,0,airplane,3,1,scripted,correct,False,drop,0715-06250ca0-7a76-4415-8f41-b39fa652d804,0,3,1,planned_sample,1,3907,1522824829462.0,airplane,6,exp
440,0,sunGlasses,4,4,scripted,correct,True,drop,0715-06250ca0-7a76-4415-8f41-b39fa652d804,1,4,4,planned_sample,1,4356,1522824841220.0,sunGlasses,6,exp
441,0,barrel,4,3,scripted,correct,False,drop,0715-06250ca0-7a76-4415-8f41-b39fa652d804,2,4,3,planned_sample,1,1835,1522824849265.0,barrel,6,exp
442,0,saxophone,2,3,scripted,correct,False,drop,0715-06250ca0-7a76-4415-8f41-b39fa652d804,3,2,3,planned_sample,1,2441,1522824873236.0,saxophone,6,exp
443,0,magnet,2,4,scripted,correct,False,drop,0715-06250ca0-7a76-4415-8f41-b39fa652d804,0,2,4,planned_sample,7,4890,1522824886617.0,magnet,7,exp
444,0,handcuffs,4,3,scripted,correct,False,drop,0715-06250ca0-7a76-4415-8f41-b39fa652d804,1,4,3,planned_sample,7,1987,1522824903987.0,handcuffs,7,exp
445,0,pandaToy,3,2,scripted,correct,False,drop,0715-06250ca0-7a76-4415-8f41-b39fa652d804,2,3,2,planned_sample,7,2603,1522824923602.0,pandaToy,7,exp
446,0,mediumCandle,1,2,scripted,correct,True,drop,0715-06250ca0-7a76-4415-8f41-b39fa652d804,3,1,2,planned_sample,7,2138,1522824933448.0,mediumCandle,7,exp
447,0,banana,4,2,scripted,correct,False,drop,0715-06250ca0-7a76-4415-8f41-b39fa652d804,0,4,2,planned_sample,6,4557,1522824944137.0,banana,8,base
448,0,dollar,4,3,scripted,correct,False,drop,0715-06250ca0-7a76-4415-8f41-b39fa652d804,1,4,3,planned_sample,6,4498,1522824973035.0,dollar,8,base
449,0,boardEraser,2,3,scripted,correct,True,drop,0715-06250ca0-7a76-4415-8f41-b39fa652d804,2,2,3,planned_sample,6,2003,1522824982477.0,boardEraser,8,base
450,0,feather,2,4,scripted,correct,False,drop,0715-06250ca0-7a76-4415-8f41-b39fa652d804,3,2,4,planned_sample,6,2652,1522825013342.0,feather,8,base
451,0,binoculars,2,4,unscripted,correct,False,drop,0771-ecbcf018-95f2-4e94-a411-b996093c3c68,0,2,4,planned_sample,2,4251,1522794560864.0,binoculars,1,exp
452,0,wrench,2,1,unscripted,correct,False,drop,0771-ecbcf018-95f2-4e94-a411-b996093c3c68,1,2,1,planned_sample,2,4092,1522794592464.0,wrench,1,exp
453,1,bottomBlock,3,4,unscripted,incorrect,True,drop,0771-ecbcf018-95f2-4e94-a411-b996093c3c68,1,3,3,planned_sample,2,3626,1522794618203.0,middleBlock,1,exp
454,0,middleBlock,3,3,unscripted,correct,True,drop,0771-ecbcf018-95f2-4e94-a411-b996093c3c68,2,3,3,planned_sample,2,2021,1522794647163.0,middleBlock,1,exp
455,0,coffeeMug,2,2,unscripted,correct,False,drop,0771-ecbcf018-95f2-4e94-a411-b996093c3c68,3,2,2,planned_sample,2,5378,1522794675591.0,coffeeMug,1,exp
456,0,comb,1,1,unscripted,correct,False,drop,0771-ecbcf018-95f2-4e94-a411-b996093c3c68,0,1,1,planned_sample,8,2525,1522794701080.0,comb,2,base
457,0,computerMouse,4,2,unscripted,correct,True,drop,0771-ecbcf018-95f2-4e94-a411-b996093c3c68,1,4,2,planned_sample,8,1997,1522794721495.0,computerMouse,2,base
458,0,castIronPan,3,3,unscripted,correct,False,drop,0771-ecbcf018-95f2-4e94-a411-b996093c3c68,2,3,3,planned_sample,8,2219,1522794747148.0,castIronPan,2,base
459,0,piano,1,4,unscripted,correct,False,drop,0771-ecbcf018-95f2-4e94-a411-b996093c3c68,3,1,4,planned_sample,8,1519,1522794772118.0,piano,2,base
460,0,scissors,2,2,unscripted,correct,False,drop,0771-ecbcf018-95f2-4e94-a411-b996093c3c68,0,2,2,planned_sample,3,2586,1522794799799.0,scissors,3,base
461,0,knife,3,4,unscripted,correct,False,drop,0771-ecbcf018-95f2-4e94-a411-b996093c3c68,1,3,4,planned_sample,3,3224,1522794829206.0,knife,3,base
462,0,barOfSoap,3,3,unscripted,correct,False,drop,0771-ecbcf018-95f2-4e94-a411-b996093c3c68,2,3,3,planned_sample,3,2989,1522794854598.0,barOfSoap,3,base
463,0,cassetteTape,3,2,unscripted,correct,True,drop,0771-ecbcf018-95f2-4e94-a411-b996093c3c68,3,3,2,planned_sample,3,1941,1522794876963.0,cassetteTape,3,base
464,0,airplane,3,1,unscripted,correct,False,drop,0771-ecbcf018-95f2-4e94-a411-b996093c3c68,0,3,1,planned_sample,1,2022,1522794901678.0,airplane,4,exp
465,0,sunGlasses,4,4,unscripted,correct,True,drop,0771-ecbcf018-95f2-4e94-a411-b996093c3c68,1,4,4,planned_sample,1,1974,1522794932929.0,sunGlasses,4,exp
466,0,barrel,4,3,unscripted,correct,False,drop,0771-ecbcf018-95f2-4e94-a411-b996093c3c68,2,4,3,planned_sample,1,1715,1522794953371.0,barrel,4,exp
467,0,saxophone,2,3,unscripted,correct,False,drop,0771-ecbcf018-95f2-4e94-a411-b996093c3c68,3,2,3,planned_sample,1,1887,1522794982840.0,saxophone,4,exp
468,0,basketball,3,2,unscripted,correct,False,drop,0771-ecbcf018-95f2-4e94-a411-b996093c3c68,0,3,2,planned_sample,5,1666,1522795005736.0,basketball,5,base
469,0,roundBrush,2,4,unscripted,correct,True,drop,0771-ecbcf018-95f2-4e94-a411-b996093c3c68,1,2,4,planned_sample,5,3455,1522795039588.0,roundBrush,5,base
470,0,headphones,3,3,unscripted,correct,False,drop,0771-ecbcf018-95f2-4e94-a411-b996093c3c68,2,3,3,planned_sample,5,2670,1522795060467.0,headphones,5,base
471,0,book,3,1,unscripted,correct,False,drop,0771-ecbcf018-95f2-4e94-a411-b996093c3c68,3,3,1,planned_sample,5,2340,1522795084358.0,book,5,base
472,0,banana,4,2,unscripted,correct,False,drop,0771-ecbcf018-95f2-4e94-a411-b996093c3c68,0,4,2,planned_sample,6,2032,1522795106914.0,banana,6,exp
473,0,magnet,2,4,scripted,correct,False,drop,0781-151127b9-9897-445d-81d8-5c05002ec7cc,0,2,4,planned_sample,7,9907,1522792535509.0,magnet,1,base
474,0,handcuffs,4,3,scripted,correct,False,drop,0781-151127b9-9897-445d-81d8-5c05002ec7cc,1,4,3,planned_sample,7,3772,1522792561886.0,handcuffs,1,base
475,0,pandaToy,3,2,scripted,correct,False,drop,0781-151127b9-9897-445d-81d8-5c05002ec7cc,2,3,2,planned_sample,7,3925,1522792618119.0,pandaToy,1,base
476,0,mediumCandle,1,2,scripted,correct,True,drop,0781-151127b9-9897-445d-81d8-5c05002ec7cc,3,1,2,planned_sample,7,4512,1522792632156.0,mediumCandle,1,base
477,0,binoculars,2,4,scripted,correct,False,drop,0781-151127b9-9897-445d-81d8-5c05002ec7cc,0,2,4,planned_sample,2,7491,1522792651674.0,binoculars,2,exp
478,0,wrench,2,1,scripted,correct,False,drop,0781-151127b9-9897-445d-81d8-5c05002ec7cc,1,2,1,planned_sample,2,4175,1522792677295.0,wrench,2,exp
479,1,bottomBlock,3,4,scripted,incorrect,True,drop,0781-151127b9-9897-445d-81d8-5c05002ec7cc,1,3,3,planned_sample,2,6377,1522792695788.0,middleBlock,2,exp
480,0,middleBlock,3,3,scripted,correct,True,drop,0781-151127b9-9897-445d-81d8-5c05002ec7cc,2,3,3,planned_sample,2,10217,1522792727864.0,middleBlock,2,exp
481,0,coffeeMug,2,2,scripted,correct,False,drop,0781-151127b9-9897-445d-81d8-5c05002ec7cc,3,2,2,planned_sample,2,6209,1522792754521.0,coffeeMug,2,exp
482,0,airplane,3,1,scripted,correct,False,drop,0781-151127b9-9897-445d-81d8-5c05002ec7cc,0,3,1,planned_sample,1,13376,1522792786842.0,airplane,3,exp
483,0,airplane,3,1,unscripted,correct,False,drop,0849-3c0ff096-1ccb-4100-bc6e-640aef71617b,0,3,1,planned_sample,1,7947,1522821292160.0,airplane,1,exp
484,0,sunGlasses,4,4,unscripted,correct,True,drop,0849-3c0ff096-1ccb-4100-bc6e-640aef71617b,1,4,4,planned_sample,1,7159,1522821317078.0,sunGlasses,1,exp
485,0,barrel,4,3,unscripted,correct,False,drop,0849-3c0ff096-1ccb-4100-bc6e-640aef71617b,2,4,3,planned_sample,1,7088,1522821339281.0,barrel,1,exp
486,0,saxophone,2,3,unscripted,correct,False,drop,0849-3c0ff096-1ccb-4100-bc6e-640aef71617b,3,2,3,planned_sample,1,3417,1522821362262.0,saxophone,1,exp
487,0,magnet,2,4,unscripted,correct,False,drop,0849-3c0ff096-1ccb-4100-bc6e-640aef71617b,0,2,4,planned_sample,7,2097,1522821381120.0,magnet,2,base
488,0,handcuffs,4,3,unscripted,correct,False,drop,0849-3c0ff096-1ccb-4100-bc6e-640aef71617b,1,4,3,planned_sample,7,2367,1522821398163.0,handcuffs,2,base
489,0,pandaToy,3,2,unscripted,correct,False,drop,0849-3c0ff096-1ccb-4100-bc6e-640aef71617b,2,3,2,planned_sample,7,3345,1522821422805.0,pandaToy,2,base
490,0,mediumCandle,1,2,unscripted,correct,True,drop,0849-3c0ff096-1ccb-4100-bc6e-640aef71617b,3,1,2,planned_sample,7,3921,1522821442631.0,mediumCandle,2,base
491,0,scissors,2,2,unscripted,correct,False,drop,0849-3c0ff096-1ccb-4100-bc6e-640aef71617b,0,2,2,planned_sample,3,3944,1522821461332.0,scissors,3,base
492,0,knife,3,4,unscripted,correct,False,drop,0849-3c0ff096-1ccb-4100-bc6e-640aef71617b,1,3,4,planned_sample,3,2129,1522821481934.0,knife,3,base
493,0,barOfSoap,3,3,unscripted,correct,False,drop,0849-3c0ff096-1ccb-4100-bc6e-640aef71617b,2,3,3,planned_sample,3,3088,1522821501216.0,barOfSoap,3,base
494,0,cassetteTape,3,2,unscripted,correct,True,drop,0849-3c0ff096-1ccb-4100-bc6e-640aef71617b,3,3,2,planned_sample,3,3041,1522821523390.0,cassetteTape,3,base
495,0,banana,4,2,unscripted,correct,False,drop,0849-3c0ff096-1ccb-4100-bc6e-640aef71617b,0,4,2,planned_sample,6,3376,1522821542064.0,banana,4,exp
496,0,dollar,4,3,unscripted,correct,False,drop,0849-3c0ff096-1ccb-4100-bc6e-640aef71617b,1,4,3,planned_sample,6,2504,1522821560544.0,dollar,4,exp
497,0,boardEraser,2,3,unscripted,correct,True,drop,0849-3c0ff096-1ccb-4100-bc6e-640aef71617b,2,2,3,planned_sample,6,6127,1522821590150.0,boardEraser,4,exp
498,0,feather,2,4,unscripted,correct,False,drop,0849-3c0ff096-1ccb-4100-bc6e-640aef71617b,3,2,4,planned_sample,6,2322,1522821614198.0,feather,4,exp
499,0,binoculars,2,4,unscripted,correct,False,drop,0849-3c0ff096-1ccb-4100-bc6e-640aef71617b,0,2,4,planned_sample,2,3616,1522821633689.0,binoculars,5,base
500,0,wrench,2,1,unscripted,correct,False,drop,0849-3c0ff096-1ccb-4100-bc6e-640aef71617b,1,2,1,planned_sample,2,5328,1522821659831.0,wrench,5,base
501,0,middleBlock,3,3,unscripted,correct,True,drop,0849-3c0ff096-1ccb-4100-bc6e-640aef71617b,2,3,3,planned_sample,2,6224,1522821698716.0,middleBlock,5,base
502,0,coffeeMug,2,2,unscripted,correct,False,drop,0849-3c0ff096-1ccb-4100-bc6e-640aef71617b,3,2,2,planned_sample,2,2946,1522821723505.0,coffeeMug,5,base
503,0,basketball,3,2,unscripted,correct,False,drop,0849-3c0ff096-1ccb-4100-bc6e-640aef71617b,0,3,2,planned_sample,5,4138,1522821744034.0,basketball,6,base
504,0,roundBrush,2,4,unscripted,correct,True,drop,0849-3c0ff096-1ccb-4100-bc6e-640aef71617b,1,2,4,planned_sample,5,2258,1522821774653.0,roundBrush,6,base
505,0,headphones,3,3,unscripted,correct,False,drop,0849-3c0ff096-1ccb-4100-bc6e-640aef71617b,2,3,3,planned_sample,5,4048,1522821792888.0,headphones,6,base
506,0,book,3,1,unscripted,correct,False,drop,0849-3c0ff096-1ccb-4100-bc6e-640aef71617b,3,3,1,planned_sample,5,3610,1522821813461.0,book,6,base
507,0,comb,1,1,unscripted,correct,False,drop,0849-3c0ff096-1ccb-4100-bc6e-640aef71617b,0,1,1,planned_sample,8,4017,1522821835219.0,comb,7,exp
508,0,computerMouse,4,2,unscripted,correct,True,drop,0849-3c0ff096-1ccb-4100-bc6e-640aef71617b,1,4,2,planned_sample,8,3946,1522821856199.0,computerMouse,7,exp
509,0,castIronPan,3,3,unscripted,correct,False,drop,0849-3c0ff096-1ccb-4100-bc6e-640aef71617b,2,3,3,planned_sample,8,3071,1522821874206.0,castIronPan,7,exp
510,0,piano,1,4,unscripted,correct,False,drop,0849-3c0ff096-1ccb-4100-bc6e-640aef71617b,3,1,4,planned_sample,8,2112,1522821890908.0,piano,7,exp
511,0,carrot,2,3,unscripted,correct,False,drop,0849-3c0ff096-1ccb-4100-bc6e-640aef71617b,0,2,3,planned_sample,4,1962,1522821912349.0,carrot,8,exp
512,0,mediumMeasuringCup,4,4,unscripted,correct,True,drop,0849-3c0ff096-1ccb-4100-bc6e-640aef71617b,1,4,4,planned_sample,4,8945,1522821957651.0,mediumMeasuringCup,8,exp
513,0,waterBottle,2,2,unscripted,correct,False,drop,0849-3c0ff096-1ccb-4100-bc6e-640aef71617b,2,2,2,planned_sample,4,6777,1522821982496.0,waterBottle,8,exp
514,0,chair,3,2,unscripted,correct,False,drop,0849-3c0ff096-1ccb-4100-bc6e-640aef71617b,3,3,2,planned_sample,4,2707,1522822009127.0,chair,8,exp
515,0,scissors,2,2,unscripted,correct,False,drop,0914-515eaa37-ca0b-49de-8ade-e23d75984698,0,2,2,planned_sample,3,13440,1522826692489.0,scissors,1,exp
516,0,knife,3,4,unscripted,correct,False,drop,0914-515eaa37-ca0b-49de-8ade-e23d75984698,1,3,4,planned_sample,3,6640,1522826712372.0,knife,1,exp
517,0,barOfSoap,3,3,unscripted,correct,False,drop,0914-515eaa37-ca0b-49de-8ade-e23d75984698,2,3,3,planned_sample,3,8440,1522826738857.0,barOfSoap,1,exp
518,0,cassetteTape,3,2,unscripted,correct,True,drop,0914-515eaa37-ca0b-49de-8ade-e23d75984698,3,3,2,planned_sample,3,8287,1522826765122.0,cassetteTape,1,exp
519,0,binoculars,2,4,unscripted,correct,False,drop,0914-515eaa37-ca0b-49de-8ade-e23d75984698,0,2,4,planned_sample,2,6463,1522826798599.0,binoculars,2,base
520,0,wrench,2,1,unscripted,correct,False,drop,0914-515eaa37-ca0b-49de-8ade-e23d75984698,1,2,1,planned_sample,2,12152,1522826838899.0,wrench,2,base
521,0,middleBlock,3,3,unscripted,correct,True,drop,0914-515eaa37-ca0b-49de-8ade-e23d75984698,2,3,3,planned_sample,2,14809,1522826921107.0,middleBlock,2,base
522,0,coffeeMug,2,2,unscripted,correct,False,drop,0914-515eaa37-ca0b-49de-8ade-e23d75984698,3,2,2,planned_sample,2,5521,1522826946836.0,coffeeMug,2,base
523,0,magnet,2,4,unscripted,correct,False,drop,0914-515eaa37-ca0b-49de-8ade-e23d75984698,0,2,4,planned_sample,7,5816,1522826976990.0,magnet,3,base
524,0,handcuffs,4,3,unscripted,correct,False,drop,0914-515eaa37-ca0b-49de-8ade-e23d75984698,1,4,3,planned_sample,7,5816,1522826996942.0,handcuffs,3,base
525,0,pandaToy,3,2,unscripted,correct,False,drop,0914-515eaa37-ca0b-49de-8ade-e23d75984698,2,3,2,planned_sample,7,7120,1522827021708.0,pandaToy,3,base
526,0,mediumCandle,1,2,unscripted,correct,True,drop,0914-515eaa37-ca0b-49de-8ade-e23d75984698,3,1,2,planned_sample,7,6040,1522827043046.0,mediumCandle,3,base
527,0,comb,1,1,unscripted,correct,False,drop,0914-515eaa37-ca0b-49de-8ade-e23d75984698,0,1,1,planned_sample,8,4904,1522827059623.0,comb,4,exp
528,0,computerMouse,4,2,unscripted,correct,True,drop,0914-515eaa37-ca0b-49de-8ade-e23d75984698,1,4,2,planned_sample,8,7432,1522827082552.0,computerMouse,4,exp
529,0,castIronPan,3,3,unscripted,correct,False,drop,0914-515eaa37-ca0b-49de-8ade-e23d75984698,2,3,3,planned_sample,8,7328,1522827106962.0,castIronPan,4,exp
530,0,piano,1,4,unscripted,correct,False,drop,0914-515eaa37-ca0b-49de-8ade-e23d75984698,3,1,4,planned_sample,8,6272,1522827139258.0,piano,4,exp
531,0,airplane,3,1,unscripted,correct,False,drop,0914-515eaa37-ca0b-49de-8ade-e23d75984698,0,3,1,planned_sample,1,12704,1522827171506.0,airplane,5,exp
532,0,sunGlasses,4,4,unscripted,correct,True,drop,0914-515eaa37-ca0b-49de-8ade-e23d75984698,1,4,4,planned_sample,1,7480,1522827202035.0,sunGlasses,5,exp
533,0,barrel,4,3,unscripted,correct,False,drop,0914-515eaa37-ca0b-49de-8ade-e23d75984698,2,4,3,planned_sample,1,4368,1522827223220.0,barrel,5,exp
534,0,saxophone,2,3,unscripted,correct,False,drop,0914-515eaa37-ca0b-49de-8ade-e23d75984698,3,2,3,planned_sample,1,7408,1522827253012.0,saxophone,5,exp
535,0,carrot,2,3,unscripted,correct,False,drop,0914-515eaa37-ca0b-49de-8ade-e23d75984698,0,2,3,planned_sample,4,4264,1522827277668.0,carrot,6,base
536,0,mediumMeasuringCup,4,4,unscripted,correct,True,drop,0914-515eaa37-ca0b-49de-8ade-e23d75984698,1,4,4,planned_sample,4,7992,1522827309661.0,mediumMeasuringCup,6,base
537,0,waterBottle,2,2,unscripted,correct,False,drop,0914-515eaa37-ca0b-49de-8ade-e23d75984698,2,2,2,planned_sample,4,8904,1522827340214.0,waterBottle,6,base
538,0,chair,3,2,unscripted,correct,False,drop,0914-515eaa37-ca0b-49de-8ade-e23d75984698,3,3,2,planned_sample,4,10161,1522827376632.0,chair,6,base
539,0,banana,4,2,unscripted,correct,False,drop,0914-515eaa37-ca0b-49de-8ade-e23d75984698,0,4,2,planned_sample,6,5617,1522827396120.0,banana,7,exp
540,0,dollar,4,3,unscripted,correct,False,drop,0914-515eaa37-ca0b-49de-8ade-e23d75984698,1,4,3,planned_sample,6,6416,1522827423392.0,dollar,7,exp
541,0,boardEraser,2,3,unscripted,correct,True,drop,0914-515eaa37-ca0b-49de-8ade-e23d75984698,2,2,3,planned_sample,6,8016,1522827461060.0,boardEraser,7,exp
542,0,feather,2,4,unscripted,correct,False,drop,0914-515eaa37-ca0b-49de-8ade-e23d75984698,3,2,4,planned_sample,6,11711,1522827501369.0,feather,7,exp
543,0,basketball,3,2,unscripted,correct,False,drop,0914-515eaa37-ca0b-49de-8ade-e23d75984698,0,3,2,planned_sample,5,7920,1522827528170.0,basketball,8,base
544,0,roundBrush,2,4,unscripted,correct,True,drop,0914-515eaa37-ca0b-49de-8ade-e23d75984698,1,2,4,planned_sample,5,18728,1522827572107.0,roundBrush,8,base
545,0,headphones,3,3,unscripted,correct,False,drop,0914-515eaa37-ca0b-49de-8ade-e23d75984698,2,3,3,planned_sample,5,7592,1522827601643.0,headphones,8,base
546,0,book,3,1,unscripted,correct,False,drop,0914-515eaa37-ca0b-49de-8ade-e23d75984698,3,3,1,planned_sample,5,5648,1522827625469.0,book,8,base
547,0,scissors,2,2,scripted,correct,False,drop,0925-bc219375-7a80-4963-8ea0-03854bb7aa4f,0,2,2,planned_sample,3,9940,1522813689475.0,scissors,1,base
548,0,knife,3,4,scripted,correct,False,drop,0925-bc219375-7a80-4963-8ea0-03854bb7aa4f,1,3,4,planned_sample,3,6078,1522813731375.0,knife,1,base
549,0,barOfSoap,3,3,scripted,correct,False,drop,0925-bc219375-7a80-4963-8ea0-03854bb7aa4f,2,3,3,planned_sample,3,3544,1522813771740.0,barOfSoap,1,base
550,0,cassetteTape,3,2,scripted,correct,True,drop,0925-bc219375-7a80-4963-8ea0-03854bb7aa4f,3,3,2,planned_sample,3,11277,1522813797753.0,cassetteTape,1,base
551,0,basketball,3,2,scripted,correct,False,drop,0925-bc219375-7a80-4963-8ea0-03854bb7aa4f,0,3,2,planned_sample,5,2659,1522813830542.0,basketball,2,exp
552,1,hairBrush,3,1,scripted,incorrect,True,drop,0925-bc219375-7a80-4963-8ea0-03854bb7aa4f,0,2,4,planned_sample,5,2069,1522813843143.0,roundBrush,2,exp
553,0,roundBrush,2,4,scripted,correct,True,drop,0925-bc219375-7a80-4963-8ea0-03854bb7aa4f,1,2,4,planned_sample,5,5464,1522813884892.0,roundBrush,2,exp
554,0,headphones,3,3,scripted,correct,False,drop,0925-bc219375-7a80-4963-8ea0-03854bb7aa4f,2,3,3,planned_sample,5,3326,1522813911542.0,headphones,2,exp
555,0,book,3,1,scripted,correct,False,drop,0925-bc219375-7a80-4963-8ea0-03854bb7aa4f,3,3,1,planned_sample,5,4958,1522813926009.0,book,2,exp
556,0,magnet,2,4,scripted,correct,False,drop,0925-bc219375-7a80-4963-8ea0-03854bb7aa4f,0,2,4,planned_sample,7,3224,1522813939958.0,magnet,3,exp
557,0,handcuffs,4,3,scripted,correct,False,drop,0925-bc219375-7a80-4963-8ea0-03854bb7aa4f,1,4,3,planned_sample,7,3451,1522813963289.0,handcuffs,3,exp
558,0,pandaToy,3,2,scripted,correct,False,drop,0925-bc219375-7a80-4963-8ea0-03854bb7aa4f,2,3,2,planned_sample,7,4365,1522813997786.0,pandaToy,3,exp
559,1,smallCandle,1,4,scripted,incorrect,True,drop,0925-bc219375-7a80-4963-8ea0-03854bb7aa4f,2,1,2,planned_sample,7,3151,1522814013779.0,mediumCandle,3,exp
560,0,mediumCandle,1,2,scripted,correct,True,drop,0925-bc219375-7a80-4963-8ea0-03854bb7aa4f,3,1,2,planned_sample,7,2710,1522814037748.0,mediumCandle,3,exp
561,0,banana,4,2,scripted,correct,False,drop,0925-bc219375-7a80-4963-8ea0-03854bb7aa4f,0,4,2,planned_sample,6,3125,1522814050938.0,banana,4,base
562,0,dollar,4,3,scripted,correct,False,drop,0925-bc219375-7a80-4963-8ea0-03854bb7aa4f,1,4,3,planned_sample,6,4866,1522814076992.0,dollar,4,base
563,0,boardEraser,2,3,scripted,correct,True,drop,0925-bc219375-7a80-4963-8ea0-03854bb7aa4f,2,2,3,planned_sample,6,8863,1522814094598.0,boardEraser,4,base
564,0,feather,2,4,scripted,correct,False,drop,0925-bc219375-7a80-4963-8ea0-03854bb7aa4f,3,2,4,planned_sample,6,2599,1522814117321.0,feather,4,base
565,0,binoculars,2,4,scripted,correct,False,drop,0925-bc219375-7a80-4963-8ea0-03854bb7aa4f,0,2,4,planned_sample,2,4130,1522814131904.0,binoculars,5,base
566,0,wrench,2,1,scripted,correct,False,drop,0925-bc219375-7a80-4963-8ea0-03854bb7aa4f,1,2,1,planned_sample,2,3984,1522814153456.0,wrench,5,base
567,0,middleBlock,3,3,scripted,correct,True,drop,0925-bc219375-7a80-4963-8ea0-03854bb7aa4f,2,3,3,planned_sample,2,6539,1522814170679.0,middleBlock,5,base
568,1,coffeeMug,1,1,scripted,incorrect,False,drop,0925-bc219375-7a80-4963-8ea0-03854bb7aa4f,2,2,2,planned_sample,2,8994,1522814218348.0,coffeeMug,5,base
569,2,coffeeMug,4,2,scripted,incorrect,False,drop,0925-bc219375-7a80-4963-8ea0-03854bb7aa4f,2,2,2,planned_sample,2,4794,1522814249874.0,coffeeMug,5,base
570,0,coffeeMug,2,2,scripted,correct,False,drop,0925-bc219375-7a80-4963-8ea0-03854bb7aa4f,3,2,2,planned_sample,2,1640,1522814266563.0,coffeeMug,5,base
571,0,comb,1,1,scripted,correct,False,drop,0925-bc219375-7a80-4963-8ea0-03854bb7aa4f,0,1,1,planned_sample,8,4185,1522814288504.0,comb,6,exp
572,0,computerMouse,4,2,scripted,correct,True,drop,0925-bc219375-7a80-4963-8ea0-03854bb7aa4f,1,4,2,planned_sample,8,2700,1522814301646.0,computerMouse,6,exp
573,0,castIronPan,3,3,scripted,correct,False,drop,0925-bc219375-7a80-4963-8ea0-03854bb7aa4f,2,3,3,planned_sample,8,3448,1522814318491.0,castIronPan,6,exp
574,0,piano,1,4,scripted,correct,False,drop,0925-bc219375-7a80-4963-8ea0-03854bb7aa4f,3,1,4,planned_sample,8,3208,1522814342541.0,piano,6,exp
575,0,airplane,3,1,scripted,correct,False,drop,0925-bc219375-7a80-4963-8ea0-03854bb7aa4f,0,3,1,planned_sample,1,3093,1522814370697.0,airplane,7,exp
576,0,sunGlasses,4,4,scripted,correct,True,drop,0925-bc219375-7a80-4963-8ea0-03854bb7aa4f,1,4,4,planned_sample,1,5158,1522814390210.0,sunGlasses,7,exp
577,0,barrel,4,3,scripted,correct,False,drop,0925-bc219375-7a80-4963-8ea0-03854bb7aa4f,2,4,3,planned_sample,1,4191,1522814408529.0,barrel,7,exp
578,0,saxophone,2,3,scripted,correct,False,drop,0925-bc219375-7a80-4963-8ea0-03854bb7aa4f,3,2,3,planned_sample,1,2720,1522814429365.0,saxophone,7,exp
579,0,carrot,2,3,scripted,correct,False,drop,0925-bc219375-7a80-4963-8ea0-03854bb7aa4f,0,2,3,planned_sample,4,2281,1522814441762.0,carrot,8,base
580,0,mediumMeasuringCup,4,4,scripted,correct,True,drop,0925-bc219375-7a80-4963-8ea0-03854bb7aa4f,1,4,4,planned_sample,4,2996,1522814455742.0,mediumMeasuringCup,8,base
581,0,waterBottle,2,2,scripted,correct,False,drop,0925-bc219375-7a80-4963-8ea0-03854bb7aa4f,2,2,2,planned_sample,4,3678,1522814485727.0,waterBottle,8,base
582,0,chair,3,2,scripted,correct,False,drop,0925-bc219375-7a80-4963-8ea0-03854bb7aa4f,3,3,2,planned_sample,4,3146,1522814509235.0,chair,8,base
583,0,carrot,2,3,unscripted,correct,False,drop,0964-f074949a-e3b5-4eb5-a3af-c16348d6b0bd,0,2,3,planned_sample,4,4077,1522793663339.0,carrot,1,base
584,0,mediumMeasuringCup,4,4,unscripted,correct,True,drop,0964-f074949a-e3b5-4eb5-a3af-c16348d6b0bd,1,4,4,planned_sample,4,41390,1522793725453.0,mediumMeasuringCup,1,base
585,0,waterBottle,2,2,unscripted,correct,False,drop,0964-f074949a-e3b5-4eb5-a3af-c16348d6b0bd,2,2,2,planned_sample,4,2865,1522793742063.0,waterBottle,1,base
586,0,basketball,3,2,scripted,correct,False,drop,0980-86201282-6873-4820-a41b-ea9f286c8aa2,0,3,2,planned_sample,5,6121,1522812885994.0,basketball,1,exp
587,1,hairBrush,3,1,scripted,incorrect,True,drop,0980-86201282-6873-4820-a41b-ea9f286c8aa2,0,2,4,planned_sample,5,4077,1522812913082.0,roundBrush,1,exp
588,2,hairBrush,3,1,scripted,incorrect,True,drop,0980-86201282-6873-4820-a41b-ea9f286c8aa2,0,2,4,planned_sample,5,5504,1522812939280.0,roundBrush,1,exp
589,0,roundBrush,2,4,scripted,correct,True,drop,0980-86201282-6873-4820-a41b-ea9f286c8aa2,1,2,4,planned_sample,5,10097,1522812975035.0,roundBrush,1,exp
590,0,headphones,3,3,scripted,correct,False,drop,0980-86201282-6873-4820-a41b-ea9f286c8aa2,2,3,3,planned_sample,5,3774,1522813003923.0,headphones,1,exp
591,0,book,3,1,scripted,correct,False,drop,0980-86201282-6873-4820-a41b-ea9f286c8aa2,3,3,1,planned_sample,5,5022,1522813023602.0,book,1,exp
592,0,banana,4,2,scripted,correct,False,drop,0980-86201282-6873-4820-a41b-ea9f286c8aa2,0,4,2,planned_sample,6,2747,1522813039977.0,banana,2,base
593,0,dollar,4,3,scripted,correct,False,drop,0980-86201282-6873-4820-a41b-ea9f286c8aa2,1,4,3,planned_sample,6,4937,1522813070659.0,dollar,2,base
594,0,boardEraser,2,3,scripted,correct,True,drop,0980-86201282-6873-4820-a41b-ea9f286c8aa2,2,2,3,planned_sample,6,6181,1522813104244.0,boardEraser,2,base
595,0,feather,2,4,scripted,correct,False,drop,0980-86201282-6873-4820-a41b-ea9f286c8aa2,3,2,4,planned_sample,6,3933,1522813126121.0,feather,2,base
596,0,airplane,3,1,scripted,correct,False,drop,0980-86201282-6873-4820-a41b-ea9f286c8aa2,0,3,1,planned_sample,1,6869,1522813165959.0,airplane,3,base
597,0,sunGlasses,4,4,scripted,correct,True,drop,0980-86201282-6873-4820-a41b-ea9f286c8aa2,1,4,4,planned_sample,1,6654,1522813202696.0,sunGlasses,3,base
598,0,barrel,4,3,scripted,correct,False,drop,0980-86201282-6873-4820-a41b-ea9f286c8aa2,2,4,3,planned_sample,1,2842,1522813232855.0,barrel,3,base
599,0,saxophone,2,3,scripted,correct,False,drop,0980-86201282-6873-4820-a41b-ea9f286c8aa2,3,2,3,planned_sample,1,4599,1522813273700.0,saxophone,3,base
600,0,comb,1,1,scripted,correct,False,drop,0980-86201282-6873-4820-a41b-ea9f286c8aa2,0,1,1,planned_sample,8,3465,1522813314005.0,comb,4,exp
601,1,toyMouse,1,2,scripted,incorrect,True,drop,0980-86201282-6873-4820-a41b-ea9f286c8aa2,0,4,2,planned_sample,8,4113,1522813326227.0,computerMouse,4,exp
602,2,toyMouse,1,2,scripted,incorrect,True,drop,0980-86201282-6873-4820-a41b-ea9f286c8aa2,0,4,2,planned_sample,8,2472,1522813353775.0,computerMouse,4,exp
603,0,computerMouse,4,2,scripted,correct,True,drop,0980-86201282-6873-4820-a41b-ea9f286c8aa2,1,4,2,planned_sample,8,8457,1522813433545.0,computerMouse,4,exp
604,0,castIronPan,3,3,scripted,correct,False,drop,0980-86201282-6873-4820-a41b-ea9f286c8aa2,2,3,3,planned_sample,8,6109,1522813511618.0,castIronPan,4,exp
605,1,piano,3,4,scripted,incorrect,False,drop,0980-86201282-6873-4820-a41b-ea9f286c8aa2,2,1,4,planned_sample,8,6759,1522813588299.0,piano,4,exp
606,0,piano,1,4,scripted,correct,False,drop,0980-86201282-6873-4820-a41b-ea9f286c8aa2,3,1,4,planned_sample,8,2504,1522813682116.0,piano,4,exp
607,0,scissors,2,2,scripted,correct,False,drop,0980-86201282-6873-4820-a41b-ea9f286c8aa2,0,2,2,planned_sample,3,3446,1522813710157.0,scissors,5,exp
608,0,knife,3,4,scripted,correct,False,drop,0980-86201282-6873-4820-a41b-ea9f286c8aa2,1,3,4,planned_sample,3,4280,1522813754073.0,knife,5,exp
609,0,barOfSoap,3,3,scripted,correct,False,drop,0980-86201282-6873-4820-a41b-ea9f286c8aa2,2,3,3,planned_sample,3,5228,1522813790153.0,barOfSoap,5,exp
610,0,cassetteTape,3,2,scripted,correct,True,drop,0980-86201282-6873-4820-a41b-ea9f286c8aa2,3,3,2,planned_sample,3,4353,1522813803330.0,cassetteTape,5,exp
611,0,carrot,2,3,scripted,correct,False,drop,0980-86201282-6873-4820-a41b-ea9f286c8aa2,0,2,3,planned_sample,4,3447,1522813815220.0,carrot,6,base
612,0,mediumMeasuringCup,4,4,scripted,correct,True,drop,0980-86201282-6873-4820-a41b-ea9f286c8aa2,1,4,4,planned_sample,4,2385,1522813826515.0,mediumMeasuringCup,6,base
613,0,waterBottle,2,2,scripted,correct,False,drop,0980-86201282-6873-4820-a41b-ea9f286c8aa2,2,2,2,planned_sample,4,6304,1522813857915.0,waterBottle,6,base
614,0,chair,3,2,scripted,correct,False,drop,0980-86201282-6873-4820-a41b-ea9f286c8aa2,3,3,2,planned_sample,4,2640,1522813900873.0,chair,6,base
615,0,magnet,2,4,scripted,correct,False,drop,0980-86201282-6873-4820-a41b-ea9f286c8aa2,0,2,4,planned_sample,7,1548,1522813910748.0,magnet,7,exp
616,0,handcuffs,4,3,scripted,correct,False,drop,0980-86201282-6873-4820-a41b-ea9f286c8aa2,1,4,3,planned_sample,7,2333,1522813939544.0,handcuffs,7,exp
617,0,pandaToy,3,2,scripted,correct,False,drop,0980-86201282-6873-4820-a41b-ea9f286c8aa2,2,3,2,planned_sample,7,3508,1522813965845.0,pandaToy,7,exp
618,0,mediumCandle,1,2,scripted,correct,True,drop,0980-86201282-6873-4820-a41b-ea9f286c8aa2,3,1,2,planned_sample,7,4035,1522813980923.0,mediumCandle,7,exp
619,0,binoculars,2,4,scripted,correct,False,drop,0980-86201282-6873-4820-a41b-ea9f286c8aa2,0,2,4,planned_sample,2,2683,1522814000123.0,binoculars,8,base
620,0,wrench,2,1,scripted,correct,False,drop,0980-86201282-6873-4820-a41b-ea9f286c8aa2,1,2,1,planned_sample,2,7572,1522814034918.0,wrench,8,base
621,0,middleBlock,3,3,scripted,correct,True,drop,0980-86201282-6873-4820-a41b-ea9f286c8aa2,2,3,3,planned_sample,2,8492,1522814064803.0,middleBlock,8,base
622,0,coffeeMug,2,2,scripted,correct,False,drop,0980-86201282-6873-4820-a41b-ea9f286c8aa2,3,2,2,planned_sample,2,11800,1522814110501.0,coffeeMug,8,base
623,0,binoculars,2,4,unscripted,correct,False,drop,0993-d2ff1751-f174-40fd-9d1c-f702d5e1ee50,0,2,4,planned_sample,2,4303,1522799789640.0,binoculars,1,base
624,0,wrench,2,1,unscripted,correct,False,drop,0993-d2ff1751-f174-40fd-9d1c-f702d5e1ee50,1,2,1,planned_sample,2,2776,1522799819839.0,wrench,1,base
625,0,middleBlock,3,3,unscripted,correct,True,drop,0993-d2ff1751-f174-40fd-9d1c-f702d5e1ee50,2,3,3,planned_sample,2,2274,1522799851636.0,middleBlock,1,base
626,0,coffeeMug,2,2,unscripted,correct,False,drop,0993-d2ff1751-f174-40fd-9d1c-f702d5e1ee50,3,2,2,planned_sample,2,2644,1522799875035.0,coffeeMug,1,base
627,0,scissors,2,2,unscripted,correct,False,drop,0993-d2ff1751-f174-40fd-9d1c-f702d5e1ee50,0,2,2,planned_sample,3,1636,1522799916231.0,scissors,2,exp
628,0,knife,3,4,unscripted,correct,False,drop,0993-d2ff1751-f174-40fd-9d1c-f702d5e1ee50,1,3,4,planned_sample,3,3200,1522799965615.0,knife,2,exp
629,0,barOfSoap,3,3,unscripted,correct,False,drop,0993-d2ff1751-f174-40fd-9d1c-f702d5e1ee50,2,3,3,planned_sample,3,1420,1522799997303.0,barOfSoap,2,exp
630,0,cassetteTape,3,2,unscripted,correct,True,drop,0993-d2ff1751-f174-40fd-9d1c-f702d5e1ee50,3,3,2,planned_sample,3,2404,1522800033688.0,cassetteTape,2,exp
631,0,basketball,3,2,unscripted,correct,False,drop,0993-d2ff1751-f174-40fd-9d1c-f702d5e1ee50,0,3,2,planned_sample,5,2484,1522800068957.0,basketball,3,exp
632,0,roundBrush,2,4,unscripted,correct,True,drop,0993-d2ff1751-f174-40fd-9d1c-f702d5e1ee50,1,2,4,planned_sample,5,4730,1522800101467.0,roundBrush,3,exp
633,0,headphones,3,3,unscripted,correct,False,drop,0993-d2ff1751-f174-40fd-9d1c-f702d5e1ee50,2,3,3,planned_sample,5,1854,1522800139120.0,headphones,3,exp
634,0,book,3,1,unscripted,correct,False,drop,0993-d2ff1751-f174-40fd-9d1c-f702d5e1ee50,3,3,1,planned_sample,5,1946,1522800160610.0,book,3,exp
635,0,airplane,3,1,unscripted,correct,False,drop,0993-d2ff1751-f174-40fd-9d1c-f702d5e1ee50,0,3,1,planned_sample,1,5821,1522800187857.0,airplane,4,base
636,0,sunGlasses,4,4,unscripted,correct,True,drop,0993-d2ff1751-f174-40fd-9d1c-f702d5e1ee50,1,4,4,planned_sample,1,1862,1522800212112.0,sunGlasses,4,base
637,0,barrel,4,3,unscripted,correct,False,drop,0993-d2ff1751-f174-40fd-9d1c-f702d5e1ee50,2,4,3,planned_sample,1,4950,1522800243104.0,barrel,4,base
638,0,saxophone,2,3,unscripted,correct,False,drop,0993-d2ff1751-f174-40fd-9d1c-f702d5e1ee50,3,2,3,planned_sample,1,6862,1522800284685.0,saxophone,4,base
639,0,magnet,2,4,unscripted,correct,False,drop,0993-d2ff1751-f174-40fd-9d1c-f702d5e1ee50,0,2,4,planned_sample,7,3320,1522800314337.0,magnet,5,base
640,0,handcuffs,4,3,unscripted,correct,False,drop,0993-d2ff1751-f174-40fd-9d1c-f702d5e1ee50,1,4,3,planned_sample,7,5060,1522800342210.0,handcuffs,5,base
641,0,pandaToy,3,2,unscripted,correct,False,drop,0993-d2ff1751-f174-40fd-9d1c-f702d5e1ee50,2,3,2,planned_sample,7,4454,1522800371401.0,pandaToy,5,base
642,0,mediumCandle,1,2,unscripted,correct,True,drop,0993-d2ff1751-f174-40fd-9d1c-f702d5e1ee50,3,1,2,planned_sample,7,2990,1522800399039.0,mediumCandle,5,base
643,0,banana,4,2,unscripted,correct,False,drop,0993-d2ff1751-f174-40fd-9d1c-f702d5e1ee50,0,4,2,planned_sample,6,1737,1522800423240.0,banana,6,exp
644,0,dollar,4,3,unscripted,correct,False,drop,0993-d2ff1751-f174-40fd-9d1c-f702d5e1ee50,1,4,3,planned_sample,6,1406,1522800444581.0,dollar,6,exp
645,1,pencilEraser,1,2,unscripted,incorrect,True,drop,0993-d2ff1751-f174-40fd-9d1c-f702d5e1ee50,1,2,3,planned_sample,6,1925,1522800460372.0,boardEraser,6,exp
646,2,pencilEraser,2,1,unscripted,incorrect,True,drop,0993-d2ff1751-f174-40fd-9d1c-f702d5e1ee50,1,2,3,planned_sample,6,2867,1522800503968.0,boardEraser,6,exp
647,0,boardEraser,2,3,unscripted,correct,True,drop,0993-d2ff1751-f174-40fd-9d1c-f702d5e1ee50,2,2,3,planned_sample,6,2935,1522800520292.0,boardEraser,6,exp
648,0,feather,2,4,unscripted,correct,False,drop,0993-d2ff1751-f174-40fd-9d1c-f702d5e1ee50,3,2,4,planned_sample,6,2661,1522800545236.0,feather,6,exp
649,0,comb,1,1,unscripted,correct,False,drop,0993-d2ff1751-f174-40fd-9d1c-f702d5e1ee50,0,1,1,planned_sample,8,1924,1522800566228.0,comb,7,exp
650,1,toyMouse,1,2,unscripted,incorrect,True,drop,0993-d2ff1751-f174-40fd-9d1c-f702d5e1ee50,0,4,2,planned_sample,8,1523,1522800578613.0,computerMouse,7,exp
651,0,computerMouse,4,2,unscripted,correct,True,drop,0993-d2ff1751-f174-40fd-9d1c-f702d5e1ee50,1,4,2,planned_sample,8,1308,1522800590225.0,computerMouse,7,exp
652,0,castIronPan,3,3,unscripted,correct,False,drop,0993-d2ff1751-f174-40fd-9d1c-f702d5e1ee50,2,3,3,planned_sample,8,2256,1522800609947.0,castIronPan,7,exp
653,0,piano,1,4,unscripted,correct,False,drop,0993-d2ff1751-f174-40fd-9d1c-f702d5e1ee50,3,1,4,planned_sample,8,3056,1522800630790.0,piano,7,exp
654,0,carrot,2,3,unscripted,correct,False,drop,0993-d2ff1751-f174-40fd-9d1c-f702d5e1ee50,0,2,3,planned_sample,4,1508,1522800649445.0,carrot,8,base
655,0,mediumMeasuringCup,4,4,unscripted,correct,True,drop,0993-d2ff1751-f174-40fd-9d1c-f702d5e1ee50,1,4,4,planned_sample,4,1806,1522800670184.0,mediumMeasuringCup,8,base
656,0,waterBottle,2,2,unscripted,correct,False,drop,0993-d2ff1751-f174-40fd-9d1c-f702d5e1ee50,2,2,2,planned_sample,4,3670,1522800691213.0,waterBottle,8,base
657,0,chair,3,2,unscripted,correct,False,drop,0993-d2ff1751-f174-40fd-9d1c-f702d5e1ee50,3,3,2,planned_sample,4,2627,1522800722078.0,chair,8,base
658,0,banana,4,2,scripted,correct,False,drop,1027-5bb92b1d-edaa-4108-b379-99b869cc83d9,0,4,2,planned_sample,6,5454,1522826640281.0,banana,1,exp
659,0,dollar,4,3,scripted,correct,False,drop,1027-5bb92b1d-edaa-4108-b379-99b869cc83d9,1,4,3,planned_sample,6,4600,1522826667567.0,dollar,1,exp
660,1,pencilEraser,1,2,scripted,incorrect,True,drop,1027-5bb92b1d-edaa-4108-b379-99b869cc83d9,1,2,3,planned_sample,6,10273,1522826687911.0,boardEraser,1,exp
661,0,boardEraser,2,3,scripted,correct,True,drop,1027-5bb92b1d-edaa-4108-b379-99b869cc83d9,2,2,3,planned_sample,6,7728,1522826717188.0,boardEraser,1,exp
662,0,feather,2,4,scripted,correct,False,drop,1027-5bb92b1d-edaa-4108-b379-99b869cc83d9,3,2,4,planned_sample,6,3145,1522826738283.0,feather,1,exp
