iterationName	gameid	serverTime	condition	trialNum	instructionNum	targetObject	attemptNum	trialType	objectSet	critical	correct	attemptedObject	intendedX	intendedY	attemptedX	attemptedY	responseTime	eventType
planned_sample	0980-86201282-6873-4820-a41b-ea9f286c8aa2	1522812885994	scripted	1	0	basketball	0	exp	5	false	correct	basketball	3	2	3	2	6121	drop
planned_sample	0980-86201282-6873-4820-a41b-ea9f286c8aa2	1522812913082	scripted	1	0	roundBrush	1	exp	5	true	incorrect	hairBrush	2	4	3	1	4077	drop
planned_sample	0980-86201282-6873-4820-a41b-ea9f286c8aa2	1522812939280	scripted	1	0	roundBrush	2	exp	5	true	incorrect	hairBrush	2	4	3	1	5504	drop
planned_sample	0980-86201282-6873-4820-a41b-ea9f286c8aa2	1522812975035	scripted	1	1	roundBrush	0	exp	5	true	correct	roundBrush	2	4	2	4	10097	drop
planned_sample	0980-86201282-6873-4820-a41b-ea9f286c8aa2	1522813003923	scripted	1	2	headphones	0	exp	5	false	correct	headphones	3	3	3	3	3774	drop
planned_sample	0980-86201282-6873-4820-a41b-ea9f286c8aa2	1522813023602	scripted	1	3	book	0	exp	5	false	correct	book	3	1	3	1	5022	drop
planned_sample	0980-86201282-6873-4820-a41b-ea9f286c8aa2	1522813039977	scripted	2	0	banana	0	base	6	false	correct	banana	4	2	4	2	2747	drop
planned_sample	0980-86201282-6873-4820-a41b-ea9f286c8aa2	1522813070659	scripted	2	1	dollar	0	base	6	false	correct	dollar	4	3	4	3	4937	drop
planned_sample	0980-86201282-6873-4820-a41b-ea9f286c8aa2	1522813104244	scripted	2	2	boardEraser	0	base	6	true	correct	boardEraser	2	3	2	3	6181	drop
planned_sample	0980-86201282-6873-4820-a41b-ea9f286c8aa2	1522813126121	scripted	2	3	feather	0	base	6	false	correct	feather	2	4	2	4	3933	drop
planned_sample	0980-86201282-6873-4820-a41b-ea9f286c8aa2	1522813165959	scripted	3	0	airplane	0	base	1	false	correct	airplane	3	1	3	1	6869	drop
planned_sample	0980-86201282-6873-4820-a41b-ea9f286c8aa2	1522813202696	scripted	3	1	sunGlasses	0	base	1	true	correct	sunGlasses	4	4	4	4	6654	drop
planned_sample	0980-86201282-6873-4820-a41b-ea9f286c8aa2	1522813232855	scripted	3	2	barrel	0	base	1	false	correct	barrel	4	3	4	3	2842	drop
planned_sample	0980-86201282-6873-4820-a41b-ea9f286c8aa2	1522813273700	scripted	3	3	saxophone	0	base	1	false	correct	saxophone	2	3	2	3	4599	drop
planned_sample	0980-86201282-6873-4820-a41b-ea9f286c8aa2	1522813314005	scripted	4	0	comb	0	exp	8	false	correct	comb	1	1	1	1	3465	drop
planned_sample	0980-86201282-6873-4820-a41b-ea9f286c8aa2	1522813326227	scripted	4	0	computerMouse	1	exp	8	true	incorrect	toyMouse	4	2	1	2	4113	drop
planned_sample	0980-86201282-6873-4820-a41b-ea9f286c8aa2	1522813353775	scripted	4	0	computerMouse	2	exp	8	true	incorrect	toyMouse	4	2	1	2	2472	drop
planned_sample	0980-86201282-6873-4820-a41b-ea9f286c8aa2	1522813433545	scripted	4	1	computerMouse	0	exp	8	true	correct	computerMouse	4	2	4	2	8457	drop
planned_sample	0980-86201282-6873-4820-a41b-ea9f286c8aa2	1522813511618	scripted	4	2	castIronPan	0	exp	8	false	correct	castIronPan	3	3	3	3	6109	drop
planned_sample	0980-86201282-6873-4820-a41b-ea9f286c8aa2	1522813588299	scripted	4	2	piano	1	exp	8	false	incorrect	piano	1	4	3	4	6759	drop
planned_sample	0980-86201282-6873-4820-a41b-ea9f286c8aa2	1522813682116	scripted	4	3	piano	0	exp	8	false	correct	piano	1	4	1	4	2504	drop
planned_sample	0980-86201282-6873-4820-a41b-ea9f286c8aa2	1522813710157	scripted	5	0	scissors	0	exp	3	false	correct	scissors	2	2	2	2	3446	drop
planned_sample	0980-86201282-6873-4820-a41b-ea9f286c8aa2	1522813754073	scripted	5	1	knife	0	exp	3	false	correct	knife	3	4	3	4	4280	drop
planned_sample	0980-86201282-6873-4820-a41b-ea9f286c8aa2	1522813790153	scripted	5	2	barOfSoap	0	exp	3	false	correct	barOfSoap	3	3	3	3	5228	drop
planned_sample	0980-86201282-6873-4820-a41b-ea9f286c8aa2	1522813803330	scripted	5	3	cassetteTape	0	exp	3	true	correct	cassetteTape	3	2	3	2	4353	drop
planned_sample	0980-86201282-6873-4820-a41b-ea9f286c8aa2	1522813815220	scripted	6	0	carrot	0	base	4	false	correct	carrot	2	3	2	3	3447	drop
planned_sample	0980-86201282-6873-4820-a41b-ea9f286c8aa2	1522813826515	scripted	6	1	mediumMeasuringCup	0	base	4	true	correct	mediumMeasuringCup	4	4	4	4	2385	drop
planned_sample	0980-86201282-6873-4820-a41b-ea9f286c8aa2	1522813857915	scripted	6	2	waterBottle	0	base	4	false	correct	waterBottle	2	2	2	2	6304	drop
planned_sample	0980-86201282-6873-4820-a41b-ea9f286c8aa2	1522813900873	scripted	6	3	chair	0	base	4	false	correct	chair	3	2	3	2	2640	drop
planned_sample	0980-86201282-6873-4820-a41b-ea9f286c8aa2	1522813910748	scripted	7	0	magnet	0	exp	7	false	correct	magnet	2	4	2	4	1548	drop
planned_sample	0980-86201282-6873-4820-a41b-ea9f286c8aa2	1522813939544	scripted	7	1	handcuffs	0	exp	7	false	correct	handcuffs	4	3	4	3	2333	drop
planned_sample	0980-86201282-6873-4820-a41b-ea9f286c8aa2	1522813965845	scripted	7	2	pandaToy	0	exp	7	false	correct	pandaToy	3	2	3	2	3508	drop
planned_sample	0980-86201282-6873-4820-a41b-ea9f286c8aa2	1522813980923	scripted	7	3	mediumCandle	0	exp	7	true	correct	mediumCandle	1	2	1	2	4035	drop
planned_sample	0980-86201282-6873-4820-a41b-ea9f286c8aa2	1522814000123	scripted	8	0	binoculars	0	base	2	false	correct	binoculars	2	4	2	4	2683	drop
planned_sample	0980-86201282-6873-4820-a41b-ea9f286c8aa2	1522814034918	scripted	8	1	wrench	0	base	2	false	correct	wrench	2	1	2	1	7572	drop
planned_sample	0980-86201282-6873-4820-a41b-ea9f286c8aa2	1522814064803	scripted	8	2	middleBlock	0	base	2	true	correct	middleBlock	3	3	3	3	8492	drop
planned_sample	0980-86201282-6873-4820-a41b-ea9f286c8aa2	1522814110501	scripted	8	3	coffeeMug	0	base	2	false	correct	coffeeMug	2	2	2	2	11800	drop
