iterationName	gameid	serverTime	condition	trialNum	instructionNum	targetObject	attemptNum	trialType	objectSet	critical	correct	attemptedObject	intendedX	intendedY	attemptedX	attemptedY	responseTime	eventType
planned_sample	8538-cb44f86e-9bb4-4bb0-91b7-fcb7f3d080bf	1522824675871	scripted	1	0	banana	0	base	6	false	correct	banana	4	2	4	2	3192	drop
planned_sample	8538-cb44f86e-9bb4-4bb0-91b7-fcb7f3d080bf	1522824705947	scripted	1	1	dollar	0	base	6	false	correct	dollar	4	3	4	3	4037	drop
planned_sample	8538-cb44f86e-9bb4-4bb0-91b7-fcb7f3d080bf	1522824720017	scripted	1	2	boardEraser	0	base	6	true	correct	boardEraser	2	3	2	3	3131	drop
planned_sample	8538-cb44f86e-9bb4-4bb0-91b7-fcb7f3d080bf	1522824735916	scripted	1	3	feather	0	base	6	false	correct	feather	2	4	2	4	3076	drop
planned_sample	8538-cb44f86e-9bb4-4bb0-91b7-fcb7f3d080bf	1522824749130	scripted	2	0	magnet	0	exp	7	false	correct	magnet	2	4	2	4	1406	drop
planned_sample	8538-cb44f86e-9bb4-4bb0-91b7-fcb7f3d080bf	1522824777196	scripted	2	1	handcuffs	0	exp	7	false	correct	handcuffs	4	3	4	3	1857	drop
planned_sample	8538-cb44f86e-9bb4-4bb0-91b7-fcb7f3d080bf	1522824799592	scripted	2	2	pandaToy	0	exp	7	false	correct	pandaToy	3	2	3	2	10633	drop
planned_sample	8538-cb44f86e-9bb4-4bb0-91b7-fcb7f3d080bf	1522824809721	scripted	2	3	mediumCandle	0	exp	7	true	correct	mediumCandle	1	2	1	2	1753	drop
planned_sample	8538-cb44f86e-9bb4-4bb0-91b7-fcb7f3d080bf	1522824820120	scripted	3	0	carrot	0	base	4	false	correct	carrot	2	3	2	3	1280	drop
planned_sample	8538-cb44f86e-9bb4-4bb0-91b7-fcb7f3d080bf	1522824830312	scripted	3	0	mediumMeasuringCup	1	base	4	true	incorrect	smallMeasuringCup	4	4	3	2	1700	drop
planned_sample	8538-cb44f86e-9bb4-4bb0-91b7-fcb7f3d080bf	1522824891969	scripted	3	1	mediumMeasuringCup	0	base	4	true	correct	mediumMeasuringCup	4	4	4	4	41563	drop
planned_sample	8538-cb44f86e-9bb4-4bb0-91b7-fcb7f3d080bf	1522824912449	scripted	3	2	waterBottle	0	base	4	false	correct	waterBottle	2	2	2	2	2407	drop
planned_sample	8538-cb44f86e-9bb4-4bb0-91b7-fcb7f3d080bf	1522824924149	scripted	3	3	chair	0	base	4	false	correct	chair	3	2	3	2	2158	drop
planned_sample	8538-cb44f86e-9bb4-4bb0-91b7-fcb7f3d080bf	1522824954678	scripted	4	0	scissors	0	exp	3	false	correct	scissors	2	2	2	2	2440	drop
planned_sample	8538-cb44f86e-9bb4-4bb0-91b7-fcb7f3d080bf	1522824963190	scripted	4	1	knife	0	exp	3	false	correct	knife	3	4	3	4	1608	drop
planned_sample	8538-cb44f86e-9bb4-4bb0-91b7-fcb7f3d080bf	1522824975696	scripted	4	2	barOfSoap	0	exp	3	false	correct	barOfSoap	3	3	3	3	1555	drop
planned_sample	8538-cb44f86e-9bb4-4bb0-91b7-fcb7f3d080bf	1522824985678	scripted	4	2	cassetteTape	1	exp	3	true	incorrect	rollOfTape	3	2	4	2	1888	drop
planned_sample	8538-cb44f86e-9bb4-4bb0-91b7-fcb7f3d080bf	1522825003540	scripted	4	3	cassetteTape	0	exp	3	true	correct	cassetteTape	3	2	3	2	2903	drop
planned_sample	8538-cb44f86e-9bb4-4bb0-91b7-fcb7f3d080bf	1522825020553	scripted	5	0	airplane	0	exp	1	false	correct	airplane	3	1	3	1	3975	drop
planned_sample	8538-cb44f86e-9bb4-4bb0-91b7-fcb7f3d080bf	1522825034633	scripted	5	1	sunGlasses	0	exp	1	true	correct	sunGlasses	4	4	4	4	5576	drop
planned_sample	8538-cb44f86e-9bb4-4bb0-91b7-fcb7f3d080bf	1522825042649	scripted	5	2	barrel	0	exp	1	false	correct	barrel	4	3	4	3	2159	drop
planned_sample	8538-cb44f86e-9bb4-4bb0-91b7-fcb7f3d080bf	1522825056418	scripted	5	3	saxophone	0	exp	1	false	correct	saxophone	2	3	2	3	1614	drop
planned_sample	8538-cb44f86e-9bb4-4bb0-91b7-fcb7f3d080bf	1522825069356	scripted	6	0	basketball	0	base	5	false	correct	basketball	3	2	3	2	1762	drop
planned_sample	8538-cb44f86e-9bb4-4bb0-91b7-fcb7f3d080bf	1522825080385	scripted	6	1	roundBrush	0	base	5	true	correct	roundBrush	2	4	2	4	5304	drop
planned_sample	8538-cb44f86e-9bb4-4bb0-91b7-fcb7f3d080bf	1522825133071	scripted	6	2	headphones	0	base	5	false	correct	headphones	3	3	3	3	1817	drop
planned_sample	8538-cb44f86e-9bb4-4bb0-91b7-fcb7f3d080bf	1522825141229	scripted	6	3	book	0	base	5	false	correct	book	3	1	3	1	1423	drop
planned_sample	8538-cb44f86e-9bb4-4bb0-91b7-fcb7f3d080bf	1522825153563	scripted	7	0	comb	0	base	8	false	correct	comb	1	1	1	1	1445	drop
planned_sample	8538-cb44f86e-9bb4-4bb0-91b7-fcb7f3d080bf	1522825162377	scripted	7	1	computerMouse	0	base	8	true	correct	computerMouse	4	2	4	2	1880	drop
planned_sample	8538-cb44f86e-9bb4-4bb0-91b7-fcb7f3d080bf	1522825176242	scripted	7	2	castIronPan	0	base	8	false	correct	castIronPan	3	3	3	3	2460	drop
planned_sample	8538-cb44f86e-9bb4-4bb0-91b7-fcb7f3d080bf	1522825189961	scripted	7	3	piano	0	base	8	false	correct	piano	1	4	1	4	3222	drop
planned_sample	8538-cb44f86e-9bb4-4bb0-91b7-fcb7f3d080bf	1522825200552	scripted	8	0	binoculars	0	exp	2	false	correct	binoculars	2	4	2	4	2663	drop
planned_sample	8538-cb44f86e-9bb4-4bb0-91b7-fcb7f3d080bf	1522825210910	scripted	8	1	wrench	0	exp	2	false	correct	wrench	2	1	2	1	948	drop
planned_sample	8538-cb44f86e-9bb4-4bb0-91b7-fcb7f3d080bf	1522825224207	scripted	8	1	middleBlock	1	exp	2	true	incorrect	bottomBlock	3	3	3	4	3865	drop
planned_sample	8538-cb44f86e-9bb4-4bb0-91b7-fcb7f3d080bf	1522825245545	scripted	8	2	middleBlock	0	exp	2	true	correct	middleBlock	3	3	3	3	2230	drop
planned_sample	8538-cb44f86e-9bb4-4bb0-91b7-fcb7f3d080bf	1522825261329	scripted	8	3	coffeeMug	0	exp	2	false	correct	coffeeMug	2	2	2	2	4680	drop
